"subID"	"mode"	"trial"	"choice"	"reaction_time"	"reward"	"condition"	"reward_prob_1"	"reward_prob_2"	"payoff_1"	"payoff_2"
"01"	"practice"	1	NA	NA	0	2	0.604881337828525	0.589525917668432	1	1
"01"	"practice"	2	1	1.08701790001942	0	0	0.645066269995826	0.532447233773351	0	0
"01"	"practice"	3	0	2.01898990001064	0	0	0.654473030423628	0.482017439868693	0	1
"01"	"practice"	4	1	2.54873189999489	0	0	0.629507027346635	0.425239754151142	1	0
"01"	"practice"	5	0	1.92430610000156	0	0	0.567942102341643	0.440449976972787	0	1
"01"	"practice"	6	1	1.06232389999786	0	0	0.505726561250371	0.476793700416252	1	0
"01"	"practice"	7	0	1.69448130001547	1	0	0.529910496170263	0.587505271668409	1	1
"01"	"practice"	8	1	1.93025700002909	1	0	0.403093949864824	0.691271920703381	1	1
"01"	"practice"	9	1	0.845677499950398	0	0	0.409857653071742	0.703002110217567	0	0
"01"	"practice"	10	NA	NA	0	2	0.4852593686873	0.613353842112282	0	0
"01"	"practice"	11	1	0.47631649998948	0	0	0.59824003013271	0.461101717539086	1	0
"01"	"practice"	12	1	0.279817499977071	0	0	0.57	0.57	1	0
"01"	"practice"	13	1	1.74291690002428	1	0	0.579271345360071	0.574325757250551	0	1
"01"	"practice"	14	1	0.460351899964735	1	1	0.520958560184316	0.543036659813899	1	1
"01"	"practice"	15	1	0.94832879997557	1	0	0.571306215105765	0.607148172349547	1	1
"01"	"main"	1	1	1.77976120001404	1	0	0.555576435403334	0.507331683071509	0	1
"01"	"main"	2	0	1.10159719997318	0	0	0.617351606142968	0.472209838262183	0	0
"01"	"main"	3	0	2.51446470001247	1	1	0.699814965848408	0.487189152330699	1	0
"01"	"main"	4	0	1.2282908000052	1	0	0.647251259999374	0.490570523148508	1	0
"01"	"main"	5	0	0.773881500004791	1	1	0.570538538035546	0.38222945411427	1	0
"01"	"main"	6	0	1.38796040002489	0	0	0.533687942383755	0.399934441997411	0	1
"01"	"main"	7	1	0.304815700044855	0	0	0.67666269149968	0.349401476995449	0	0
"01"	"main"	8	0	0.52846880001016	0	0	0.57461080493042	0.327510490836703	0	0
"01"	"main"	9	0	1.29288840002846	1	0	0.582284452413071	0.347729048417966	1	0
"01"	"main"	10	0	3.0363714999985	0	0	0.527791598529542	0.350367798239185	0	1
"01"	"main"	11	1	0.789057799964212	0	0	0.622098546707874	0.374150404794546	1	0
"01"	"main"	12	1	1.24841890000971	1	0	0.707187656210176	0.315027381896704	1	1
"01"	"main"	13	1	1.22898150002584	0	0	0.658319424029582	0.310095470511548	1	0
"01"	"main"	14	1	2.14166020002449	0	0	0.71509836871154	0.26558924336044	0	0
"01"	"main"	15	0	2.52238099998794	0	0	0.793784173387864	0.19788014979461	0	0
"01"	"main"	16	0	1.42369690001942	1	0	0.762025637902687	0.264268040786613	1	1
"01"	"main"	17	0	0.821329300000798	1	0	0.817794370837621	0.228816438657858	1	0
"01"	"main"	18	1	2.32637160003651	0	0	0.943505627675994	0.134531368694185	1	0
"01"	"main"	19	1	0.904299699992407	0	0	0.88042539427006	0.126117376695722	1	0
"01"	"main"	20	0	2.19359909999184	0	0	0.88141419902209	0.167715162454051	0	0
"01"	"main"	21	0	2.11101689998759	1	1	0.926475070515252	0.196257369156	1	0
"01"	"main"	22	0	1.78704919997836	1	0	0.762212792355211	0.240827910004588	1	1
"01"	"main"	23	0	3.93165320000844	1	0	0.832741819082016	0.242376315383812	1	0
"01"	"main"	24	1	0.555341400031466	1	1	0.87572801016491	0.210653147288722	1	1
"01"	"main"	25	1	0.602973100030795	0	0	0.901392550517004	0.287858765558841	0	0
"01"	"main"	26	0	0.680148600018583	0	0	0.5	0.5	0	1
"01"	"main"	27	1	0.538887900009286	0	0	0.47198289108407	0.479630803239395	0	0
"01"	"main"	28	0	1.07672309997724	0	0	0.451300860354397	0.563081093554472	0	1
"01"	"main"	29	1	0.898244100040756	1	0	0.344672941990869	0.579265483657169	1	1
"01"	"main"	30	1	0.56881450000219	0	0	0.337454289592964	0.594321228446069	1	0
"01"	"main"	31	0	0.784096399962436	1	0	0.367445229764992	0.580178205706305	1	0
"01"	"main"	32	0	0.974758900003508	0	0	0.497671249472267	0.58248521812116	0	1
"01"	"main"	33	1	1.06405449996237	1	0	0.333359355352326	0.623555180838034	1	1
"01"	"main"	34	0	1.9662418999942	0	0	0.241652282988025	0.686746779602761	0	1
"01"	"main"	35	0	1.33075359999202	1	1	0.195454841650344	0.661038457638478	1	1
"01"	"main"	36	0	2.22591959999409	0	0	0.180653959002254	0.685892261089408	0	1
"01"	"main"	37	0	1.28727720002644	1	0	0.258591041399634	0.712566846639682	1	0
"01"	"main"	38	1	1.02992210001685	1	0	0.303400046978359	0.719395712538573	1	1
"01"	"main"	39	0	0.857191099959891	1	0	0.277412315124341	0.749736745991295	1	1
"01"	"main"	40	1	0.628268899978139	1	1	0.320351770924529	0.776182387945535	0	1
"01"	"main"	41	0	0.847425199986901	0	0	0.26847779415513	0.880962369563303	0	1
"01"	"main"	42	0	1.19665529998019	1	0	0.334608505925852	0.834700648247268	1	1
"01"	"main"	43	1	0.424821599968709	1	0	0.257925492353917	0.867215787680252	0	1
"01"	"main"	44	1	0.860756199981552	1	0	0.407413615867797	0.783146094047992	0	1
"01"	"main"	45	0	0.505455200036522	0	0	0.425344217763901	0.826438187211729	0	1
"01"	"main"	46	0	0.38808170001721	1	1	0.466287605695082	0.82276383754746	1	1
"01"	"main"	47	0	0.604674500005785	1	0	0.46997818613805	0.83942550003661	1	0
"01"	"main"	48	0	0.4865346000297	1	0	0.509206483141894	0.791160598984749	1	1
"01"	"main"	49	0	0.696600699971896	0	0	0.518408421999646	0.772768505769246	0	1
"01"	"main"	50	1	0.894016400037799	1	0	0.563742787765027	0.821121422404046	0	1
"01"	"main"	51	1	0.844046899990644	1	1	0.476613123106746	0.844272177412898	1	1
"01"	"main"	52	1	0.994614499970339	1	0	0.51016316381515	0.875986259295828	0	1
"01"	"main"	53	0	0.929542500001844	0	0	0.537304612055424	0.945703829793078	0	1
"01"	"main"	54	1	1.26147860003402	1	0	0.5	0.5	1	1
"01"	"main"	55	1	0.494762000045739	1	0	0.581265985279672	0.492952738728127	1	1
"01"	"main"	56	1	0.560732699988876	0	0	0.532370029676829	0.517844152000677	1	0
"01"	"main"	57	0	1.30850529996678	0	0	0.63320557342562	0.532542370027412	0	1
"01"	"main"	58	1	0.576012000034098	0	0	0.616819735713173	0.575295028107811	0	0
"01"	"main"	59	0	1.85347420000471	1	1	0.620794210781112	0.529700206254975	1	1
"01"	"main"	60	0	0.605412899982184	1	0	0.692799118934886	0.472623485360633	1	0
"01"	"main"	61	0	1.14867799996864	1	0	0.630777930827792	0.540848790223134	1	0
"01"	"main"	62	0	0.759945300000254	1	0	0.601061016580427	0.562953817181234	1	1
"01"	"main"	63	0	0.57192210003268	1	0	0.593862827930525	0.548533525677581	1	1
"01"	"main"	64	0	0.949877900013234	1	0	0.51746526747761	0.560305780952636	1	1
"01"	"main"	65	0	0.795891700021457	0	0	0.590323363542731	0.48845822531535	0	0
"01"	"main"	66	1	1.0028433999978	0	0	0.592687065368938	0.383879183802933	0	0
"01"	"main"	67	0	0.435355300025549	1	1	0.58924031324363	0.381747507619132	1	0
"01"	"main"	68	0	0.652588500001002	1	0	0.727502686452927	0.324306692712727	1	0
"01"	"main"	69	0	0.372393500001635	0	0	0.798098041342449	0.354191505079017	0	1
"01"	"main"	70	1	0.676553999946918	0	0	0.769515334621779	0.383505458471255	1	0
"01"	"main"	71	0	0.86945299996296	0	0	0.665364536110592	0.412817177867354	0	1
"01"	"main"	72	1	0.755454999976791	1	1	0.607366195511558	0.431039872074443	1	1
"01"	"main"	73	1	1.05991509999149	0	0	0.594239791388308	0.483238078737103	1	0
"01"	"main"	74	1	1.3719684999669	0	0	0.589686914891419	0.525766234996639	0	0
"01"	"main"	75	1	0.749845599988475	0	0	0.642577814277618	0.43966694642038	1	0
"01"	"main"	76	0	0.513836199999787	1	0	0.730027467478255	0.395708791004312	1	1
"01"	"main"	77	0	0.527330100012477	0	0	0.718655019614009	0.424261688642449	0	0
"01"	"main"	78	0	0.602509100048337	1	0	0.730571802690875	0.432145925689092	1	0
"01"	"main"	79	0	0.91450780001469	0	0	0.737094261581743	0.430767658249591	0	1
"01"	"main"	80	1	0.767874400014989	0	0	0.5	0.5	0	0
"01"	"main"	81	0	2.74133290001191	1	0	0.513284052484818	0.529381893465876	1	0
"01"	"main"	82	0	1.42126169998664	0	0	0.464237721337896	0.496110214648747	0	1
"01"	"main"	83	0	1.76090059999842	1	0	0.560232697166105	0.457334075535608	1	0
"01"	"main"	84	1	0.523805600008927	0	0	0.511686352492163	0.578046346662422	1	0
"01"	"main"	85	1	0.41337460000068	0	0	0.404712233277053	0.579079000934035	0	0
"01"	"main"	86	0	0.421842799987644	0	0	0.369480929922246	0.586283126921434	0	1
"01"	"main"	87	1	1.04794239997864	0	0	0.322503794003764	0.6022945459428	1	0
"01"	"main"	88	0	0.89580489997752	0	0	0.134268809062603	0.68667236002214	0	0
"01"	"main"	89	1	0.862636600038968	1	1	0.155506573332876	0.754635522854535	0	1
"01"	"main"	90	1	0.485841899993829	0	0	0.283048064664192	0.791457380346444	0	0
"01"	"main"	91	1	1.26457840000512	1	0	0.19317586964517	0.787845018926644	0	1
"01"	"main"	92	1	1.50581260002218	0	0	0.075350179431446	0.823414337226662	0	0
"01"	"main"	93	0	0.871213499980513	0	0	0.135469385940853	0.79989086148191	0	1
"01"	"main"	94	1	1.12278099998366	1	0	0.217975644875593	0.742074077104262	0	1
"01"	"main"	95	0	2.83779070002493	1	0	0.223236868031375	0.639476235501221	1	1
"01"	"main"	96	1	1.15482860000338	1	0	0.190931682376356	0.670119146188176	1	1
"01"	"main"	97	0	1.21037100005196	0	0	0.164795697644265	0.71350148522623	0	0
"01"	"main"	98	0	1.41971370001556	0	0	0.0587941918366612	0.739150293757189	0	1
"01"	"main"	99	0	0.473754299979191	0	0	0.0846386055056624	0.73040362051332	0	1
"01"	"main"	100	1	0.509789799980354	0	0	0.0958368123128416	0.721685277856616	0	0
"01"	"main"	101	1	0.843609299976379	1	1	0.053832202433148	0.786722132494019	1	1
"01"	"main"	102	1	1.07650640001521	1	0	0	0.761102685007765	0	1
"01"	"main"	103	0	3.03186089999508	0	0	0	0.776693933273524	0	1
"01"	"main"	104	1	0.617957500042394	1	0	0	0.819564368191025	0	1
"01"	"main"	105	1	1.76714120001998	1	1	0	0.810267750183304	0	1
"01"	"main"	106	0	1.29420840000967	0	0	0	0.820339913457968	0	1
"01"	"main"	107	0	0.892372400034219	0	0	0.0169675199114359	0.786492443657461	0	1
"01"	"main"	108	0	0.487649900023826	0	0	0.0847207455288439	0.736577461464901	0	0
"01"	"main"	109	0	0.387205000035465	0	0	0.147279284182769	0.763419735393831	0	1
"01"	"main"	110	1	0.469745200010948	0	0	0.276613254699233	0.69523828467482	1	0
"01"	"main"	111	1	1.61101769999368	1	0	0.334862500999842	0.700265090623073	1	1
"01"	"main"	112	1	0.657208100019488	1	0	0.340851040222599	0.802727392986362	1	1
"01"	"main"	113	1	0.949595399957616	1	0	0.331092352609128	0.827928328365019	1	1
"01"	"main"	114	1	1.75940160005121	1	1	0.319566889529114	0.846724315813175	0	1
"01"	"main"	115	0	1.14769790001446	0	0	0.303641050955141	0.831844126631785	0	1
"01"	"main"	116	0	0.485107199987397	0	0	0.284672808527294	0.759483115493039	0	1
"01"	"main"	117	1	0.724281300033908	1	0	0.5	0.5	0	1
"01"	"main"	118	1	0.407378199975938	1	0	0.405077546213323	0.510300271308326	0	1
"01"	"main"	119	1	0.893066800024826	0	0	0.397778822904832	0.48664531969944	0	0
"01"	"main"	120	0	1.16300639999099	1	0	0.440227728735338	0.476095245182856	1	0
"01"	"main"	121	0	0.451740399992559	0	0	0.560466054257797	0.456445984403029	0	1
"01"	"main"	122	1	0.526441099995282	0	0	0.706278861372574	0.432990014976055	0	0
"01"	"main"	123	0	1.4682085000095	1	0	0.775883980754819	0.37127124175343	1	1
"01"	"main"	124	0	0.86706520000007	0	0	0.738178998808561	0.437391583248021	0	1
"01"	"main"	125	1	0.976659300038591	1	0	0.815619220372362	0.441031762172044	0	1
"01"	"main"	126	1	0.821492999966722	1	1	0.769173539714637	0.48319048325766	0	1
"01"	"main"	127	0	0.915064300002996	1	0	0.816871360996698	0.44181720197392	1	1
"01"	"main"	128	0	3.38538719998905	1	1	0.777819424053782	0.444761773899252	1	0
"01"	"main"	129	1	0.604692300024908	1	0	0.796282845738995	0.506536377722022	1	1
"01"	"main"	130	1	0.620183199993335	1	0	0.759640091552668	0.481896203282857	0	1
"01"	"main"	131	0	1.29096600000048	1	0	0.742439930001268	0.515673733948945	1	1
"01"	"main"	132	1	0.571064100018702	0	0	0.799195276284513	0.476301145819806	1	0
"01"	"main"	133	0	0.813008899975102	0	0	0.833458746526229	0.453408391893157	0	0
"01"	"main"	134	0	0.40620199998375	1	0	0.802342961074014	0.412044398220306	1	0
"01"	"main"	135	1	0.345376199984457	0	0	0.730423115232099	0.400014075322617	1	0
"01"	"main"	136	0	1.07953470002394	1	0	0.5	0.5	1	0
"01"	"main"	137	0	0.429043099982664	1	1	0.563226966158004	0.458207236747252	1	1
"01"	"main"	138	1	0.870105099980719	1	0	0.53976186590742	0.472714308421327	1	1
"01"	"main"	139	1	1.27402779995464	0	0	0.588316793163036	0.424622275044204	1	0
"01"	"main"	140	0	1.00699139997596	1	1	0.635770036918279	0.37222685875581	1	0
"01"	"main"	141	1	1.02539209998213	1	0	0.701673117903269	0.288366935868049	1	1
"01"	"main"	142	0	0.546935000049416	1	0	0.786199766788735	0.292400248129942	1	0
"01"	"main"	143	0	0.982027400052175	1	0	0.801558914133946	0.278068053705081	1	0
"01"	"main"	144	0	1.279738000012	0	0	0.711825591902403	0.333563855604912	0	1
"01"	"main"	145	1	0.776538500038441	0	0	0.836552661143969	0.242906523675509	1	0
"01"	"main"	146	1	0.856083800026681	0	0	0.93136678309911	0.240924262992941	1	0
"01"	"main"	147	0	1.13734509999631	1	1	0.926258165763239	0.297632339923293	1	0
"01"	"main"	148	1	2.65963589999592	1	0	0.91256657949796	0.221515795365011	1	1
"01"	"main"	149	1	1.06597169995075	0	0	0.990241433126796	0.201776923302138	1	0
"01"	"main"	150	1	0.411468699981924	0	0	0.962731795952263	0.17303633054313	1	0
"01"	"main"	151	0	0.691155500011519	0	0	0.92175542619492	0.15473994938277	0	0
"01"	"main"	152	1	0.649331399996299	0	0	1	0.164672178808671	1	0
"01"	"main"	153	1	0.960162899980787	0	0	0.930506169619434	0.26191500591662	1	0
"01"	"main"	154	0	1.25702660001116	1	0	0.905506746872117	0.334798524486805	1	0
"01"	"main"	155	1	0.507265399966855	0	0	0.950615577177758	0.320136614146252	1	0
"01"	"main"	156	1	1.0233440999873	0	0	0.896741143190184	0.339566573481006	1	0
"01"	"main"	157	0	0.825951999984682	1	0	0.853040085573585	0.356676149018156	1	0
"01"	"main"	158	1	0.494064500031527	0	0	0.913921060894133	0.34536544295981	1	0
"01"	"main"	159	0	1.08803310000803	1	0	0.964206878257592	0.372186971547234	1	1
"01"	"main"	160	0	1.87418729998171	0	0	0.910165798806356	0.368600121200789	0	0
"01"	"main"	161	1	1.44944449997274	0	0	0.948042451680344	0.414897360782146	1	0
"01"	"main"	162	0	0.693405600031838	1	1	1	0.365569905181243	1	0
"01"	"main"	163	1	1.40402269997867	1	0	1	0.366436766884944	1	1
"01"	"main"	164	1	2.62526040000375	1	1	1	0.324464777928894	1	1
"01"	"main"	165	0	0.771980400022585	1	0	1	0.320116306620486	1	0
"01"	"main"	166	1	0.421185199986212	1	0	1	0.38969753607428	1	1
"01"	"main"	167	0	0.684015500009991	1	0	0.5	0.5	1	1
"01"	"main"	168	1	0.707363200024702	0	0	0.50351658969195	0.524536755874787	0	0
"01"	"main"	169	1	0.584862600022461	0	0	0.67385711399424	0.517666871825377	1	0
"01"	"main"	170	0	0.544197499984875	0	0	0.628463278214603	0.559855969252727	0	0
"01"	"main"	171	1	0.504773300024681	0	0	0.684814796729482	0.554699720379085	0	0
"01"	"main"	172	1	0.357929699996021	1	0	0.527911762897882	0.648399136382813	0	1
"01"	"main"	173	0	0.378071599989198	1	1	0.665497670476772	0.567180720941672	1	0
"01"	"main"	174	0	0.805082899983972	0	0	0.663773888550375	0.541324753942782	0	0
"01"	"main"	175	0	4.89432930003386	1	0	0.640010967603257	0.510985021725165	1	0
"01"	"main"	176	1	0.485278300009668	1	0	0.509400184169286	0.561823077201915	1	1
"01"	"main"	177	0	3.28777979995357	1	0	0.599474691753887	0.605336780056135	1	1
"01"	"main"	178	1	0.596714399987832	1	0	0.535581308647342	0.57808575644893	1	1
"01"	"main"	179	0	0.839300199993886	1	0	0.640498270868215	0.551108355150418	1	0
"01"	"main"	180	1	0.889551000029314	0	0	0.610573840156063	0.4987428744541	1	0
"01"	"main"	181	1	0.773316799954046	1	1	0.754775722092426	0.426050138987263	1	1
"01"	"main"	182	1	0.509126599994488	1	0	0.808613709814397	0.450898107723797	1	1
"01"	"main"	183	0	0.795252300042193	1	0	0.793473204329693	0.423510411823786	1	1
"01"	"main"	184	0	0.621451900049578	1	0	0.882547017984216	0.417061449893614	1	1
"01"	"main"	185	1	0.886761300032958	0	0	0.844624205423092	0.48621186437157	1	0
"01"	"main"	186	1	0.649707300006412	0	0	0.815359071721132	0.49751038133828	1	0
"01"	"main"	187	0	0.783914700034074	1	1	0.742126453580042	0.530060973197108	1	0
"01"	"main"	188	0	1.15069450001465	1	0	0.781218211589577	0.482477249276747	1	0
"01"	"main"	189	0	0.417019299988169	0	0	0.5	0.5	0	0
"01"	"main"	190	1	0.465865099977236	1	0	0.426256785365754	0.518372018615903	1	1
"01"	"main"	191	1	0.626971799996682	1	1	0.390615288043338	0.558885252951831	1	1
"01"	"main"	192	0	1.07062449998921	1	0	0.417720220579349	0.513015887539214	1	1
"01"	"main"	193	0	1.09572739998112	1	1	0.421362100805762	0.512372966648582	1	0
"01"	"main"	194	1	1.72119359998032	1	0	0.396394887839748	0.489860576931913	0	1
"01"	"main"	195	1	0.598700999980792	0	0	0.531174701960184	0.441806898997427	1	0
"01"	"main"	196	1	0.627174399967771	0	0	0.529470078245538	0.412456963479004	0	0
"01"	"main"	197	0	1.49779579997994	0	0	0.43199073072734	0.440798510346862	0	1
"01"	"main"	198	1	0.959711400035303	0	0	0.532744303534784	0.319535739981654	0	0
"01"	"main"	199	0	0.61862750002183	0	0	0.64360565536582	0.392998621823113	0	1
"01"	"main"	200	1	0.749072000035085	1	0	0.578161391422245	0.442473847633005	1	1
"02"	"practice"	1	1	2.42936079995707	1	0	0.604881337828525	0.589525917668432	1	1
"02"	"practice"	2	1	2.09616680000909	0	0	0.645066269995826	0.532447233773351	0	0
"02"	"practice"	3	1	1.47048389998963	1	0	0.654473030423628	0.482017439868693	0	1
"02"	"practice"	4	0	0.796143800020218	1	0	0.629507027346635	0.425239754151142	1	0
"02"	"practice"	5	1	1.05213640001602	1	1	0.567942102341643	0.440449976972787	0	1
"02"	"practice"	6	0	0.613005599996541	1	0	0.505726561250371	0.476793700416252	1	0
"02"	"practice"	7	1	2.46820220001973	1	0	0.529910496170263	0.587505271668409	1	1
"02"	"practice"	8	0	2.12298519996693	1	1	0.403093949864824	0.691271920703381	1	1
"02"	"practice"	9	1	0.4853979999898	0	0	0.409857653071742	0.703002110217567	0	0
"02"	"practice"	10	1	0.500876700039953	0	0	0.4852593686873	0.613353842112282	0	0
"02"	"practice"	11	0	0.534978899988346	1	0	0.59824003013271	0.461101717539086	1	0
"02"	"practice"	12	0	0.529008599987719	1	1	0.57	0.57	1	0
"02"	"practice"	13	0	0.782076100003906	0	0	0.579271345360071	0.574325757250551	0	1
"02"	"practice"	14	1	1.48536140000215	1	0	0.520958560184316	0.543036659813899	1	1
"02"	"practice"	15	1	0.956103199976496	1	0	0.571306215105765	0.607148172349547	1	1
"02"	"main"	1	1	1.4927297999966	1	0	0.555576435403334	0.507331683071509	0	1
"02"	"main"	2	0	0.807993599970359	0	0	0.617351606142968	0.472209838262183	0	0
"02"	"main"	3	1	0.565343499998562	0	0	0.699814965848408	0.487189152330699	1	0
"02"	"main"	4	1	0.454006000014488	0	0	0.647251259999374	0.490570523148508	1	0
"02"	"main"	5	1	0.664900000032503	0	0	0.570538538035546	0.38222945411427	1	0
"02"	"main"	6	0	0.414149500022177	0	0	0.533687942383755	0.399934441997411	0	1
"02"	"main"	7	0	0.529337299987674	0	0	0.67666269149968	0.349401476995449	0	0
"02"	"main"	8	1	0.440031499951147	0	0	0.57461080493042	0.327510490836703	0	0
"02"	"main"	9	1	0.419983499974478	0	0	0.582284452413071	0.347729048417966	1	0
"02"	"main"	10	1	0.373971900029574	1	0	0.527791598529542	0.350367798239185	0	1
"02"	"main"	11	1	1.29536639997968	0	0	0.622098546707874	0.374150404794546	1	0
"02"	"main"	12	0	0.681326799967792	1	1	0.707187656210176	0.315027381896704	1	1
"02"	"main"	13	1	0.563989499991294	0	0	0.658319424029582	0.310095470511548	1	0
"02"	"main"	14	0	0.4151458000415	0	0	0.71509836871154	0.26558924336044	0	0
"02"	"main"	15	0	0.463963799993508	0	0	0.793784173387864	0.19788014979461	0	0
"02"	"main"	16	0	0.538802800001577	1	0	0.762025637902687	0.264268040786613	1	1
"02"	"main"	17	0	0.495249600033276	1	0	0.817794370837621	0.228816438657858	1	0
"02"	"main"	18	0	0.578067999973428	1	1	0.943505627675994	0.134531368694185	1	0
"02"	"main"	19	0	0.580227400001604	1	0	0.88042539427006	0.126117376695722	1	0
"02"	"main"	20	0	0.50909370003501	0	0	0.88141419902209	0.167715162454051	0	0
"02"	"main"	21	1	0.602046599960886	0	0	0.926475070515252	0.196257369156	1	0
"02"	"main"	22	1	0.836306800018065	1	0	0.762212792355211	0.240827910004588	1	1
"02"	"main"	23	1	0.495316500018816	0	0	0.832741819082016	0.242376315383812	1	0
"02"	"main"	24	1	1.34075890004169	1	0	0.87572801016491	0.210653147288722	1	1
"02"	"main"	25	0	0.491258899972308	0	0	0.901392550517004	0.287858765558841	0	0
"02"	"main"	26	1	0.451199100003578	1	1	0.5	0.5	0	1
"02"	"main"	27	1	0.885231599968392	0	0	0.47198289108407	0.479630803239395	0	0
"02"	"main"	28	0	0.321247500018217	0	0	0.451300860354397	0.563081093554472	0	1
"02"	"main"	29	0	0.374776300042868	1	0	0.344672941990869	0.579265483657169	1	1
"02"	"main"	30	1	0.627865499991458	0	0	0.337454289592964	0.594321228446069	1	0
"02"	"main"	31	1	0.525164299993776	0	0	0.367445229764992	0.580178205706305	1	0
"02"	"main"	32	1	0.679237900010776	1	0	0.497671249472267	0.58248521812116	0	1
"02"	"main"	33	0	0.4299734000233	1	0	0.333359355352326	0.623555180838034	1	1
"02"	"main"	34	0	0.540633700031321	0	0	0.241652282988025	0.686746779602761	0	1
"02"	"main"	35	0	0.552785000007134	1	1	0.195454841650344	0.661038457638478	1	1
"02"	"main"	36	0	0.443873399985023	0	0	0.180653959002254	0.685892261089408	0	1
"02"	"main"	37	1	0.457750600005966	0	0	0.258591041399634	0.712566846639682	1	0
"02"	"main"	38	0	0.425716199970338	1	0	0.303400046978359	0.719395712538573	1	1
"02"	"main"	39	0	0.583729699952528	1	0	0.277412315124341	0.749736745991295	1	1
"02"	"main"	40	0	0.443282600026578	0	0	0.320351770924529	0.776182387945535	0	1
"02"	"main"	41	1	0.438671200012323	1	0	0.26847779415513	0.880962369563303	0	1
"02"	"main"	42	0	0.47918630001368	1	1	0.334608505925852	0.834700648247268	1	1
"02"	"main"	43	0	0.663149499974679	0	0	0.257925492353917	0.867215787680252	0	1
"02"	"main"	44	1	0.520596899965312	1	0	0.407413615867797	0.783146094047992	0	1
"02"	"main"	45	0	0.813672999967821	0	0	0.425344217763901	0.826438187211729	0	1
"02"	"main"	46	0	0.46861490001902	1	0	0.466287605695082	0.82276383754746	1	1
"02"	"main"	47	0	0.541254299983848	1	0	0.46997818613805	0.83942550003661	1	0
"02"	"main"	48	1	0.466562499990687	1	1	0.509206483141894	0.791160598984749	1	1
"02"	"main"	49	0	0.503692300000694	0	0	0.518408421999646	0.772768505769246	0	1
"02"	"main"	50	1	0.459809499967378	1	0	0.563742787765027	0.821121422404046	0	1
"02"	"main"	51	1	0.371144599979743	1	0	0.476613123106746	0.844272177412898	1	1
"02"	"main"	52	1	0.393679100030567	1	0	0.51016316381515	0.875986259295828	0	1
"02"	"main"	53	0	0.612257400003728	0	0	0.537304612055424	0.945703829793078	0	1
"02"	"main"	54	0	0.593847000040114	1	1	0.5	0.5	1	1
"02"	"main"	55	1	0.567691600008402	1	0	0.581265985279672	0.492952738728127	1	1
"02"	"main"	56	0	0.489769199979492	1	0	0.532370029676829	0.517844152000677	1	0
"02"	"main"	57	1	0.358483799966052	1	0	0.63320557342562	0.532542370027412	0	1
"02"	"main"	58	0	0.422921799996402	0	0	0.616819735713173	0.575295028107811	0	0
"02"	"main"	59	0	0.513023999985307	1	0	0.620794210781112	0.529700206254975	1	1
"02"	"main"	60	0	0.44502540002577	1	0	0.692799118934886	0.472623485360633	1	0
"02"	"main"	61	1	0.339066800021101	0	0	0.630777930827792	0.540848790223134	1	0
"02"	"main"	62	1	0.46759800001746	1	1	0.601061016580427	0.562953817181234	1	1
"02"	"main"	63	0	0.443754999956582	1	0	0.593862827930525	0.548533525677581	1	1
"02"	"main"	64	1	0.466995800030418	1	1	0.51746526747761	0.560305780952636	1	1
"02"	"main"	65	1	0.539171200012788	0	0	0.590323363542731	0.48845822531535	0	0
"02"	"main"	66	0	0.482542400015518	0	0	0.592687065368938	0.383879183802933	0	0
"02"	"main"	67	0	0.560972000006586	1	0	0.58924031324363	0.381747507619132	1	0
"02"	"main"	68	0	0.393088600016199	1	0	0.727502686452927	0.324306692712727	1	0
"02"	"main"	69	0	0.587701899989042	0	0	0.798098041342449	0.354191505079017	0	1
"02"	"main"	70	0	0.661254600039683	1	0	0.769515334621779	0.383505458471255	1	0
"02"	"main"	71	0	0.348833500000183	0	0	0.665364536110592	0.412817177867354	0	1
"02"	"main"	72	1	0.401019400043879	1	0	0.607366195511558	0.431039872074443	1	1
"02"	"main"	73	1	0.402972499956377	0	0	0.594239791388308	0.483238078737103	1	0
"02"	"main"	74	1	0.451603599998634	0	0	0.589686914891419	0.525766234996639	0	0
"02"	"main"	75	1	0.384986600023694	0	0	0.642577814277618	0.43966694642038	1	0
"02"	"main"	76	1	0.266926100011915	1	1	0.730027467478255	0.395708791004312	1	1
"02"	"main"	77	0	0.431178300001193	0	0	0.718655019614009	0.424261688642449	0	0
"02"	"main"	78	1	0.383524899953045	0	0	0.730571802690875	0.432145925689092	1	0
"02"	"main"	79	1	0.326511099992786	1	0	0.737094261581743	0.430767658249591	0	1
"02"	"main"	80	1	0.328888999996707	0	0	0.5	0.5	0	0
"02"	"main"	81	0	0.251567500003148	1	0	0.513284052484818	0.529381893465876	1	0
"02"	"main"	82	0	0.452808899979573	0	0	0.464237721337896	0.496110214648747	0	1
"02"	"main"	83	1	0.374923099996522	0	0	0.560232697166105	0.457334075535608	1	0
"02"	"main"	84	1	0.731038700032514	0	0	0.511686352492163	0.578046346662422	1	0
"02"	"main"	85	0	0.324478299997281	0	0	0.404712233277053	0.579079000934035	0	0
"02"	"main"	86	0	0.366384299995843	0	0	0.369480929922246	0.586283126921434	0	1
"02"	"main"	87	0	0.33837010001298	1	0	0.322503794003764	0.6022945459428	1	0
"02"	"main"	88	0	0.454940099967644	0	0	0.134268809062603	0.68667236002214	0	0
"02"	"main"	89	1	0.375086700019892	1	0	0.155506573332876	0.754635522854535	0	1
"02"	"main"	90	1	0.382912700006273	0	0	0.283048064664192	0.791457380346444	0	0
"02"	"main"	91	1	0.328907700022683	1	1	0.19317586964517	0.787845018926644	0	1
"02"	"main"	92	1	0.441427199984901	0	0	0.075350179431446	0.823414337226662	0	0
"02"	"main"	93	0	0.972905300033744	0	0	0.135469385940853	0.79989086148191	0	1
"02"	"main"	94	1	0.515769999998156	1	0	0.217975644875593	0.742074077104262	0	1
"02"	"main"	95	1	0.544875400024466	1	0	0.223236868031375	0.639476235501221	1	1
"02"	"main"	96	1	0.476865199976601	1	1	0.190931682376356	0.670119146188176	1	1
"02"	"main"	97	1	0.393504700041376	0	0	0.164795697644265	0.71350148522623	0	0
"02"	"main"	98	1	0.331735499959905	1	0	0.0587941918366612	0.739150293757189	0	1
"02"	"main"	99	0	0.321434499986935	0	0	0.0846386055056624	0.73040362051332	0	1
"02"	"main"	100	1	0.422948900028132	0	0	0.0958368123128416	0.721685277856616	0	0
"02"	"main"	101	0	0.287524899991695	1	0	0.053832202433148	0.786722132494019	1	1
"02"	"main"	102	0	0.432806900003925	0	0	0	0.761102685007765	0	1
"02"	"main"	103	0	0.370245600002818	0	0	0	0.776693933273524	0	1
"02"	"main"	104	0	0.586946499999613	0	0	0	0.819564368191025	0	1
"02"	"main"	105	0	0.39677659998415	0	0	0	0.810267750183304	0	1
"02"	"main"	106	1	0.400371600000653	1	0	0	0.820339913457968	0	1
"02"	"main"	107	1	0.734567200008314	1	1	0.0169675199114359	0.786492443657461	0	1
"02"	"main"	108	1	0.448371900012717	0	0	0.0847207455288439	0.736577461464901	0	0
"02"	"main"	109	0	0.66276660002768	0	0	0.147279284182769	0.763419735393831	0	1
"02"	"main"	110	1	0.470185900048818	0	0	0.276613254699233	0.69523828467482	1	0
"02"	"main"	111	0	0.557436100032646	1	0	0.334862500999842	0.700265090623073	1	1
"02"	"main"	112	1	0.666798499994911	1	0	0.340851040222599	0.802727392986362	1	1
"02"	"main"	113	0	0.471512900025118	1	0	0.331092352609128	0.827928328365019	1	1
"02"	"main"	114	1	0.469513699994422	1	0	0.319566889529114	0.846724315813175	0	1
"02"	"main"	115	0	0.310250400041696	0	0	0.303641050955141	0.831844126631785	0	1
"02"	"main"	116	1	0.333434300031513	1	0	0.284672808527294	0.759483115493039	0	1
"02"	"main"	117	1	0.418309399974532	1	1	0.5	0.5	0	1
"02"	"main"	118	1	0.766849700012244	1	0	0.405077546213323	0.510300271308326	0	1
"02"	"main"	119	1	0.466250099998433	0	0	0.397778822904832	0.48664531969944	0	0
"02"	"main"	120	1	0.426282199972775	0	0	0.440227728735338	0.476095245182856	1	0
"02"	"main"	121	0	0.429552900022827	0	0	0.560466054257797	0.456445984403029	0	1
"02"	"main"	122	1	0.377211000013631	0	0	0.706278861372574	0.432990014976055	0	0
"02"	"main"	123	0	0.540550699981395	1	1	0.775883980754819	0.37127124175343	1	1
"02"	"main"	124	1	0.358197600056883	1	0	0.738178998808561	0.437391583248021	0	1
"02"	"main"	125	1	0.299394500034396	1	0	0.815619220372362	0.441031762172044	0	1
"02"	"main"	126	0	0.306614400004037	0	0	0.769173539714637	0.48319048325766	0	1
"02"	"main"	127	0	0.442023399984464	1	0	0.816871360996698	0.44181720197392	1	1
"02"	"main"	128	0	0.376732100034133	1	0	0.777819424053782	0.444761773899252	1	0
"02"	"main"	129	1	0.314302500046324	1	0	0.796282845738995	0.506536377722022	1	1
"02"	"main"	130	1	0.739464299986139	1	1	0.759640091552668	0.481896203282857	0	1
"02"	"main"	131	0	0.322634299984202	1	0	0.742439930001268	0.515673733948945	1	1
"02"	"main"	132	1	0.888242800021544	0	0	0.799195276284513	0.476301145819806	1	0
"02"	"main"	133	0	0.550537800008897	0	0	0.833458746526229	0.453408391893157	0	0
"02"	"main"	134	1	0.447339400008786	0	0	0.802342961074014	0.412044398220306	1	0
"02"	"main"	135	1	0.409283000044525	0	0	0.730423115232099	0.400014075322617	1	0
"02"	"main"	136	1	0.360074799973518	0	0	0.5	0.5	1	0
"02"	"main"	137	0	0.391332400031388	1	1	0.563226966158004	0.458207236747252	1	1
"02"	"main"	138	1	0.674062800011598	1	0	0.53976186590742	0.472714308421327	1	1
"02"	"main"	139	1	0.417331299977377	0	0	0.588316793163036	0.424622275044204	1	0
"02"	"main"	140	1	0.524154099985026	0	0	0.635770036918279	0.37222685875581	1	0
"02"	"main"	141	0	0.793355399975553	1	0	0.701673117903269	0.288366935868049	1	1
"02"	"main"	142	0	0.769255699997302	1	0	0.786199766788735	0.292400248129942	1	0
"02"	"main"	143	0	0.402109599963296	1	1	0.801558914133946	0.278068053705081	1	0
"02"	"main"	144	1	0.299974000023212	1	0	0.711825591902403	0.333563855604912	0	1
"02"	"main"	145	1	0.403120000031777	0	0	0.836552661143969	0.242906523675509	1	0
"02"	"main"	146	1	0.513208399992436	0	0	0.93136678309911	0.240924262992941	1	0
"02"	"main"	147	0	0.331540999992285	1	0	0.926258165763239	0.297632339923293	1	0
"02"	"main"	148	1	0.508817599969916	1	0	0.91256657949796	0.221515795365011	1	1
"02"	"main"	149	1	0.380575600021984	0	0	0.990241433126796	0.201776923302138	1	0
"02"	"main"	150	0	0.4475320999627	1	0	0.962731795952263	0.17303633054313	1	0
"02"	"main"	151	1	0.551161199982744	0	0	0.92175542619492	0.15473994938277	0	0
"02"	"main"	152	1	0.451168800005689	0	0	1	0.164672178808671	1	0
"02"	"main"	153	1	0.449111099995207	0	0	0.930506169619434	0.26191500591662	1	0
"02"	"main"	154	1	0.45003429998178	0	0	0.905506746872117	0.334798524486805	1	0
"02"	"main"	155	0	0.474016699998174	1	1	0.950615577177758	0.320136614146252	1	0
"02"	"main"	156	0	0.40475129999686	1	0	0.896741143190184	0.339566573481006	1	0
"02"	"main"	157	1	0.35816750000231	0	0	0.853040085573585	0.356676149018156	1	0
"02"	"main"	158	1	0.405518100014888	0	0	0.913921060894133	0.34536544295981	1	0
"02"	"main"	159	1	0.443977300019469	1	1	0.964206878257592	0.372186971547234	1	1
"02"	"main"	160	0	0.416469600051642	0	0	0.910165798806356	0.368600121200789	0	0
"02"	"main"	161	1	0.338025499950163	0	0	0.948042451680344	0.414897360782146	1	0
"02"	"main"	162	1	0.630388299992774	0	0	1	0.365569905181243	1	0
"02"	"main"	163	0	0.410643100040034	1	0	1	0.366436766884944	1	1
"02"	"main"	164	1	1.72421909996774	1	0	1	0.324464777928894	1	1
"02"	"main"	165	0	0.407472899998538	1	0	1	0.320116306620486	1	0
"02"	"main"	166	1	0.713378000014927	1	0	1	0.38969753607428	1	1
"02"	"main"	167	0	0.392020800034516	1	1	0.5	0.5	1	1
"02"	"main"	168	0	0.4459883000236	0	0	0.50351658969195	0.524536755874787	0	0
"02"	"main"	169	0	0.364406699954998	1	0	0.67385711399424	0.517666871825377	1	0
"02"	"main"	170	1	0.624104200047441	0	0	0.628463278214603	0.559855969252727	0	0
"02"	"main"	171	0	0.363995300023817	0	0	0.684814796729482	0.554699720379085	0	0
"02"	"main"	172	0	0.383413199975621	0	0	0.527911762897882	0.648399136382813	0	1
"02"	"main"	173	1	1.03636379999807	0	0	0.665497670476772	0.567180720941672	1	0
"02"	"main"	174	1	0.419993699993938	0	0	0.663773888550375	0.541324753942782	0	0
"02"	"main"	175	0	0.405165000003763	1	0	0.640010967603257	0.510985021725165	1	0
"02"	"main"	176	1	0.479904599953443	1	0	0.509400184169286	0.561823077201915	1	1
"02"	"main"	177	0	0.506614700017963	1	0	0.599474691753887	0.605336780056135	1	1
"02"	"main"	178	1	0.5731915999786	1	0	0.535581308647342	0.57808575644893	1	1
"02"	"main"	179	0	0.597921800042968	1	1	0.640498270868215	0.551108355150418	1	0
"02"	"main"	180	1	1.23486929998035	0	0	0.610573840156063	0.4987428744541	1	0
"02"	"main"	181	0	0.388427699974272	1	0	0.754775722092426	0.426050138987263	1	1
"02"	"main"	182	1	0.666479700012133	1	0	0.808613709814397	0.450898107723797	1	1
"02"	"main"	183	0	0.433750299969688	1	0	0.793473204329693	0.423510411823786	1	1
"02"	"main"	184	1	0.67386030004127	1	1	0.882547017984216	0.417061449893614	1	1
"02"	"main"	185	0	0.476336499967147	1	0	0.844624205423092	0.48621186437157	1	0
"02"	"main"	186	1	0.34989830001723	0	0	0.815359071721132	0.49751038133828	1	0
"02"	"main"	187	0	0.368576799985021	1	0	0.742126453580042	0.530060973197108	1	0
"02"	"main"	188	0	0.635961499996483	1	1	0.781218211589577	0.482477249276747	1	0
"02"	"main"	189	0	0.642996700014919	0	0	0.5	0.5	0	0
"02"	"main"	190	1	0.512944700021762	1	0	0.426256785365754	0.518372018615903	1	1
"02"	"main"	191	0	0.444405600021128	1	1	0.390615288043338	0.558885252951831	1	1
"02"	"main"	192	0	0.613021600001957	1	0	0.417720220579349	0.513015887539214	1	1
"02"	"main"	193	1	0.575153100013267	0	0	0.421362100805762	0.512372966648582	1	0
"02"	"main"	194	1	0.876120099972468	1	0	0.396394887839748	0.489860576931913	0	1
"02"	"main"	195	0	0.555089299974497	1	0	0.531174701960184	0.441806898997427	1	0
"02"	"main"	196	1	0.439037600008305	0	0	0.529470078245538	0.412456963479004	0	0
"02"	"main"	197	0	0.325844700040761	0	0	0.43199073072734	0.440798510346862	0	1
"02"	"main"	198	1	0.343918200000189	0	0	0.532744303534784	0.319535739981654	0	0
"02"	"main"	199	1	0.303049199981615	1	0	0.64360565536582	0.392998621823113	0	1
"02"	"main"	200	1	0.717091200000141	1	0	0.578161391422245	0.442473847633005	1	1
"03"	"practice"	1	0	4.01730140007567	1	0	0.604881337828525	0.589525917668432	1	1
"03"	"practice"	2	0	4.76696360006463	0	0	0.645066269995826	0.532447233773351	0	0
"03"	"practice"	3	1	2.53542269999161	1	0	0.654473030423628	0.482017439868693	0	1
"03"	"practice"	4	0	3.89220339991152	1	0	0.629507027346635	0.425239754151142	1	0
"03"	"practice"	5	1	2.80753059999552	1	1	0.567942102341643	0.440449976972787	0	1
"03"	"practice"	6	0	1.9062094000401	1	0	0.505726561250371	0.476793700416252	1	0
"03"	"practice"	7	0	2.4562931000255	1	0	0.529910496170263	0.587505271668409	1	1
"03"	"practice"	8	1	0.963837899966165	1	1	0.403093949864824	0.691271920703381	1	1
"03"	"practice"	9	0	0.86776410008315	0	0	0.409857653071742	0.703002110217567	0	0
"03"	"practice"	10	1	2.24181809998117	0	0	0.4852593686873	0.613353842112282	0	0
"03"	"practice"	11	1	2.69552519998979	0	0	0.59824003013271	0.461101717539086	1	0
"03"	"practice"	12	0	1.47033460007515	1	0	0.57	0.57	1	0
"03"	"practice"	13	0	1.12008839996997	0	0	0.579271345360071	0.574325757250551	0	1
"03"	"practice"	14	1	0.965459299972281	1	1	0.520958560184316	0.543036659813899	1	1
"03"	"practice"	15	0	0.750662500038743	1	0	0.571306215105765	0.607148172349547	1	1
"03"	"main"	1	1	2.17932240001392	1	0	0.555576435403334	0.507331683071509	0	1
"03"	"main"	2	1	2.28189920005389	0	0	0.617351606142968	0.472209838262183	0	0
"03"	"main"	3	0	0.908714200020768	1	0	0.699814965848408	0.487189152330699	1	0
"03"	"main"	4	1	1.39401709998492	0	0	0.647251259999374	0.490570523148508	1	0
"03"	"main"	5	1	1.04946830007248	0	0	0.570538538035546	0.38222945411427	1	0
"03"	"main"	6	0	0.692847299971618	0	0	0.533687942383755	0.399934441997411	0	1
"03"	"main"	7	1	2.03987019998021	0	0	0.67666269149968	0.349401476995449	0	0
"03"	"main"	8	1	0.830589700024575	0	0	0.57461080493042	0.327510490836703	0	0
"03"	"main"	9	0	0.667987799970433	1	0	0.582284452413071	0.347729048417966	1	0
"03"	"main"	10	0	0.81813319993671	0	0	0.527791598529542	0.350367798239185	0	1
"03"	"main"	11	1	0.587990800035186	0	0	0.622098546707874	0.374150404794546	1	0
"03"	"main"	12	0	0.633400000049733	1	1	0.707187656210176	0.315027381896704	1	1
"03"	"main"	13	1	0.639530599932186	0	0	0.658319424029582	0.310095470511548	1	0
"03"	"main"	14	0	0.668608900043182	0	0	0.71509836871154	0.26558924336044	0	0
"03"	"main"	15	1	2.82069870003033	0	0	0.793784173387864	0.19788014979461	0	0
"03"	"main"	16	0	0.766512700007297	1	0	0.762025637902687	0.264268040786613	1	1
"03"	"main"	17	0	1.69030779995956	1	0	0.817794370837621	0.228816438657858	1	0
"03"	"main"	18	0	0.864557699998841	1	1	0.943505627675994	0.134531368694185	1	0
"03"	"main"	19	0	0.51345049997326	1	0	0.88042539427006	0.126117376695722	1	0
"03"	"main"	20	0	0.56063369999174	0	0	0.88141419902209	0.167715162454051	0	0
"03"	"main"	21	1	0.618507399922237	0	0	0.926475070515252	0.196257369156	1	0
"03"	"main"	22	0	0.685330600012094	1	0	0.762212792355211	0.240827910004588	1	1
"03"	"main"	23	0	0.500622999970801	1	0	0.832741819082016	0.242376315383812	1	0
"03"	"main"	24	0	0.595237600035034	1	1	0.87572801016491	0.210653147288722	1	1
"03"	"main"	25	0	0.686568600009196	0	0	0.901392550517004	0.287858765558841	0	0
"03"	"main"	26	0	0.729346700012684	0	0	0.5	0.5	0	1
"03"	"main"	27	1	0.881490200059488	0	0	0.47198289108407	0.479630803239395	0	0
"03"	"main"	28	0	0.595131600042805	0	0	0.451300860354397	0.563081093554472	0	1
"03"	"main"	29	1	1.27809740009252	1	0	0.344672941990869	0.579265483657169	1	1
"03"	"main"	30	1	0.618283600080758	0	0	0.337454289592964	0.594321228446069	1	0
"03"	"main"	31	0	0.531930200057104	1	0	0.367445229764992	0.580178205706305	1	0
"03"	"main"	32	0	0.852580099948682	0	0	0.497671249472267	0.58248521812116	0	1
"03"	"main"	33	1	2.98142779991031	1	0	0.333359355352326	0.623555180838034	1	1
"03"	"main"	34	1	1.40223090001382	1	1	0.241652282988025	0.686746779602761	0	1
"03"	"main"	35	1	0.638667999999598	1	0	0.195454841650344	0.661038457638478	1	1
"03"	"main"	36	0	1.07852870004717	0	0	0.180653959002254	0.685892261089408	0	1
"03"	"main"	37	1	0.573211800074205	0	0	0.258591041399634	0.712566846639682	1	0
"03"	"main"	38	0	0.536581099964678	1	0	0.303400046978359	0.719395712538573	1	1
"03"	"main"	39	0	2.92331049998756	1	0	0.277412315124341	0.749736745991295	1	1
"03"	"main"	40	0	1.20842989999801	0	0	0.320351770924529	0.776182387945535	0	1
"03"	"main"	41	1	1.13576330000069	1	1	0.26847779415513	0.880962369563303	0	1
"03"	"main"	42	1	0.678515400039032	1	0	0.334608505925852	0.834700648247268	1	1
"03"	"main"	43	1	0.487919299979694	1	0	0.257925492353917	0.867215787680252	0	1
"03"	"main"	44	0	0.74939509993419	0	0	0.407413615867797	0.783146094047992	0	1
"03"	"main"	45	1	0.546394399949349	1	0	0.425344217763901	0.826438187211729	0	1
"03"	"main"	46	0	2.1789182999637	1	1	0.466287605695082	0.82276383754746	1	1
"03"	"main"	47	0	0.802730900002643	1	0	0.46997818613805	0.83942550003661	1	0
"03"	"main"	48	0	0.692476400057785	1	0	0.509206483141894	0.791160598984749	1	1
"03"	"main"	49	0	0.560163700021803	0	0	0.518408421999646	0.772768505769246	0	1
"03"	"main"	50	1	0.699141999939457	1	0	0.563742787765027	0.821121422404046	0	1
"03"	"main"	51	1	0.807198100024834	1	1	0.476613123106746	0.844272177412898	1	1
"03"	"main"	52	1	0.9242166999029	1	0	0.51016316381515	0.875986259295828	0	1
"03"	"main"	53	1	0.584242000011727	1	0	0.537304612055424	0.945703829793078	0	1
"03"	"main"	54	1	0.603716099984013	1	0	0.5	0.5	1	1
"03"	"main"	55	1	0.48974420002196	1	0	0.581265985279672	0.492952738728127	1	1
"03"	"main"	56	0	1.06325790006667	1	0	0.532370029676829	0.517844152000677	1	0
"03"	"main"	57	0	1.17821370007005	0	0	0.63320557342562	0.532542370027412	0	1
"03"	"main"	58	1	1.16176919999998	0	0	0.616819735713173	0.575295028107811	0	0
"03"	"main"	59	0	0.538323000073433	1	1	0.620794210781112	0.529700206254975	1	1
"03"	"main"	60	0	1.38323000003584	1	0	0.692799118934886	0.472623485360633	1	0
"03"	"main"	61	0	0.898444200051017	1	1	0.630777930827792	0.540848790223134	1	0
"03"	"main"	62	0	1.32828700006939	1	0	0.601061016580427	0.562953817181234	1	1
"03"	"main"	63	0	0.957094400073402	1	0	0.593862827930525	0.548533525677581	1	1
"03"	"main"	64	0	0.911072800052352	1	0	0.51746526747761	0.560305780952636	1	1
"03"	"main"	65	0	0.849211399909109	0	0	0.590323363542731	0.48845822531535	0	0
"03"	"main"	66	1	1.08913300000131	0	0	0.592687065368938	0.383879183802933	0	0
"03"	"main"	67	1	0.520294400048442	0	0	0.58924031324363	0.381747507619132	1	0
"03"	"main"	68	0	0.612270099925809	1	0	0.727502686452927	0.324306692712727	1	0
"03"	"main"	69	0	0.989709900110029	0	0	0.798098041342449	0.354191505079017	0	1
"03"	"main"	70	1	0.789101599948481	0	0	0.769515334621779	0.383505458471255	1	0
"03"	"main"	71	0	1.04217879998032	0	0	0.665364536110592	0.412817177867354	0	1
"03"	"main"	72	1	0.952215400058776	1	1	0.607366195511558	0.431039872074443	1	1
"03"	"main"	73	1	0.992311700014398	0	0	0.594239791388308	0.483238078737103	1	0
"03"	"main"	74	1	0.819896099972539	0	0	0.589686914891419	0.525766234996639	0	0
"03"	"main"	75	0	0.684208099963143	1	0	0.642577814277618	0.43966694642038	1	0
"03"	"main"	76	0	0.720448300009593	1	0	0.730027467478255	0.395708791004312	1	1
"03"	"main"	77	0	0.90437609993387	0	0	0.718655019614009	0.424261688642449	0	0
"03"	"main"	78	1	0.747040499933064	0	0	0.730571802690875	0.432145925689092	1	0
"03"	"main"	79	0	0.621016700053588	0	0	0.737094261581743	0.430767658249591	0	1
"03"	"main"	80	0	1.06955779995769	0	0	0.5	0.5	0	0
"03"	"main"	81	1	0.865721200010739	0	0	0.513284052484818	0.529381893465876	1	0
"03"	"main"	82	1	0.704174399957992	1	0	0.464237721337896	0.496110214648747	0	1
"03"	"main"	83	1	0.790233900072053	0	0	0.560232697166105	0.457334075535608	1	0
"03"	"main"	84	0	1.84901170001831	1	0	0.511686352492163	0.578046346662422	1	0
"03"	"main"	85	0	0.599211400025524	0	0	0.404712233277053	0.579079000934035	0	0
"03"	"main"	86	0	0.612027500057593	0	0	0.369480929922246	0.586283126921434	0	1
"03"	"main"	87	0	0.522188299917616	1	1	0.322503794003764	0.6022945459428	1	0
"03"	"main"	88	0	0.613532899995334	0	0	0.134268809062603	0.68667236002214	0	0
"03"	"main"	89	0	1.81733130000066	0	0	0.155506573332876	0.754635522854535	0	1
"03"	"main"	90	1	0.554069600068033	0	0	0.283048064664192	0.791457380346444	0	0
"03"	"main"	91	1	0.552960600005463	1	0	0.19317586964517	0.787845018926644	0	1
"03"	"main"	92	1	0.64292730006855	0	0	0.075350179431446	0.823414337226662	0	0
"03"	"main"	93	1	0.511273400043137	1	0	0.135469385940853	0.79989086148191	0	1
"03"	"main"	94	0	1.27627629996277	0	0	0.217975644875593	0.742074077104262	0	1
"03"	"main"	95	0	1.93096539995167	1	1	0.223236868031375	0.639476235501221	1	1
"03"	"main"	96	1	0.769076400087215	1	0	0.190931682376356	0.670119146188176	1	1
"03"	"main"	97	1	0.652954199933447	0	0	0.164795697644265	0.71350148522623	0	0
"03"	"main"	98	1	0.820798499975353	1	0	0.0587941918366612	0.739150293757189	0	1
"03"	"main"	99	0	0.912899700109847	0	0	0.0846386055056624	0.73040362051332	0	1
"03"	"main"	100	0	0.777794299996458	0	0	0.0958368123128416	0.721685277856616	0	0
"03"	"main"	101	0	0.556060999981128	1	0	0.053832202433148	0.786722132494019	1	1
"03"	"main"	102	0	0.587455000029877	0	0	0	0.761102685007765	0	1
"03"	"main"	103	1	0.734838000033051	1	1	0	0.776693933273524	0	1
"03"	"main"	104	0	1.40408639993984	0	0	0	0.819564368191025	0	1
"03"	"main"	105	1	0.573997600004077	1	0	0	0.810267750183304	0	1
"03"	"main"	106	1	0.572914800024591	1	0	0	0.820339913457968	0	1
"03"	"main"	107	1	0.469547800021246	1	0	0.0169675199114359	0.786492443657461	0	1
"03"	"main"	108	1	0.590847300016321	0	0	0.0847207455288439	0.736577461464901	0	0
"03"	"main"	109	1	0.557284599984996	1	0	0.147279284182769	0.763419735393831	0	1
"03"	"main"	110	1	0.600939000025392	0	0	0.276613254699233	0.69523828467482	1	0
"03"	"main"	111	1	0.401980299968273	1	0	0.334862500999842	0.700265090623073	1	1
"03"	"main"	112	1	0.556865400052629	1	1	0.340851040222599	0.802727392986362	1	1
"03"	"main"	113	1	0.55333939997945	1	0	0.331092352609128	0.827928328365019	1	1
"03"	"main"	114	1	0.513910499983467	1	1	0.319566889529114	0.846724315813175	0	1
"03"	"main"	115	1	0.734941400005482	1	0	0.303641050955141	0.831844126631785	0	1
"03"	"main"	116	1	0.690826800069772	1	0	0.284672808527294	0.759483115493039	0	1
"03"	"main"	117	1	0.553454800043255	1	0	0.5	0.5	0	1
"03"	"main"	118	0	0.602748399949633	0	0	0.405077546213323	0.510300271308326	0	1
"03"	"main"	119	1	0.593553600017913	0	0	0.397778822904832	0.48664531969944	0	0
"03"	"main"	120	1	0.859316500020213	0	0	0.440227728735338	0.476095245182856	1	0
"03"	"main"	121	0	0.652855499996804	0	0	0.560466054257797	0.456445984403029	0	1
"03"	"main"	122	1	0.754664800013416	0	0	0.706278861372574	0.432990014976055	0	0
"03"	"main"	123	1	1.3298330999678	1	0	0.775883980754819	0.37127124175343	1	1
"03"	"main"	124	0	0.929831900051795	0	0	0.738178998808561	0.437391583248021	0	1
"03"	"main"	125	1	0.632053599925712	1	0	0.815619220372362	0.441031762172044	0	1
"03"	"main"	126	1	0.542733500013128	1	1	0.769173539714637	0.48319048325766	0	1
"03"	"main"	127	1	0.713442000094801	1	0	0.816871360996698	0.44181720197392	1	1
"03"	"main"	128	1	0.792267699958757	0	0	0.777819424053782	0.444761773899252	1	0
"03"	"main"	129	1	0.454042099998333	1	1	0.796282845738995	0.506536377722022	1	1
"03"	"main"	130	1	0.543331200024113	1	0	0.759640091552668	0.481896203282857	0	1
"03"	"main"	131	0	0.571891600033268	1	0	0.742439930001268	0.515673733948945	1	1
"03"	"main"	132	1	0.619843399967067	0	0	0.799195276284513	0.476301145819806	1	0
"03"	"main"	133	1	0.431320199975744	0	0	0.833458746526229	0.453408391893157	0	0
"03"	"main"	134	1	0.49187000002712	0	0	0.802342961074014	0.412044398220306	1	0
"03"	"main"	135	0	0.682647200068459	1	0	0.730423115232099	0.400014075322617	1	0
"03"	"main"	136	0	0.565883399918675	1	1	0.5	0.5	1	0
"03"	"main"	137	0	0.777257999987341	1	0	0.563226966158004	0.458207236747252	1	1
"03"	"main"	138	0	0.673874799977057	1	0	0.53976186590742	0.472714308421327	1	1
"03"	"main"	139	0	1.15543049992993	1	0	0.588316793163036	0.424622275044204	1	0
"03"	"main"	140	0	1.12356159999035	1	0	0.635770036918279	0.37222685875581	1	0
"03"	"main"	141	0	1.41684279998299	1	1	0.701673117903269	0.288366935868049	1	1
"03"	"main"	142	0	0.635275900014676	1	0	0.786199766788735	0.292400248129942	1	0
"03"	"main"	143	0	0.512046599993482	1	1	0.801558914133946	0.278068053705081	1	0
"03"	"main"	144	0	0.587132600019686	0	0	0.711825591902403	0.333563855604912	0	1
"03"	"main"	145	1	0.741471100016497	0	0	0.836552661143969	0.242906523675509	1	0
"03"	"main"	146	1	1.08202380000148	0	0	0.93136678309911	0.240924262992941	1	0
"03"	"main"	147	0	0.694777199998498	1	0	0.926258165763239	0.297632339923293	1	0
"03"	"main"	148	0	0.562739699962549	1	0	0.91256657949796	0.221515795365011	1	1
"03"	"main"	149	0	0.489053299999796	1	0	0.990241433126796	0.201776923302138	1	0
"03"	"main"	150	0	0.78919650008902	1	0	0.962731795952263	0.17303633054313	1	0
"03"	"main"	151	0	0.719218200072646	0	0	0.92175542619492	0.15473994938277	0	0
"03"	"main"	152	1	0.789235200034454	0	0	1	0.164672178808671	1	0
"03"	"main"	153	0	0.981368800043128	1	1	0.930506169619434	0.26191500591662	1	0
"03"	"main"	154	0	1.50455029995646	1	0	0.905506746872117	0.334798524486805	1	0
"03"	"main"	155	0	0.872965499991551	1	0	0.950615577177758	0.320136614146252	1	0
"03"	"main"	156	0	1.14466819993686	1	0	0.896741143190184	0.339566573481006	1	0
"03"	"main"	157	0	1.00263160001487	1	0	0.853040085573585	0.356676149018156	1	0
"03"	"main"	158	0	1.11777600005735	1	0	0.913921060894133	0.34536544295981	1	0
"03"	"main"	159	0	0.957690000068396	1	1	0.964206878257592	0.372186971547234	1	1
"03"	"main"	160	0	1.26123209996149	0	0	0.910165798806356	0.368600121200789	0	0
"03"	"main"	161	0	0.460662700003013	1	0	0.948042451680344	0.414897360782146	1	0
"03"	"main"	162	0	0.77097039995715	1	0	1	0.365569905181243	1	0
"03"	"main"	163	0	0.787837999989279	1	0	1	0.366436766884944	1	1
"03"	"main"	164	0	0.706708200043067	1	1	1	0.324464777928894	1	1
"03"	"main"	165	0	0.785670300014317	1	0	1	0.320116306620486	1	0
"03"	"main"	166	0	0.801568199996836	1	0	1	0.38969753607428	1	1
"03"	"main"	167	0	0.859033599961549	1	1	0.5	0.5	1	1
"03"	"main"	168	0	0.623091399902478	0	0	0.50351658969195	0.524536755874787	0	0
"03"	"main"	169	0	0.49252880003769	1	0	0.67385711399424	0.517666871825377	1	0
"03"	"main"	170	0	0.636500700027682	0	0	0.628463278214603	0.559855969252727	0	0
"03"	"main"	171	0	0.906535099959001	0	0	0.684814796729482	0.554699720379085	0	0
"03"	"main"	172	1	0.504504199954681	1	1	0.527911762897882	0.648399136382813	0	1
"03"	"main"	173	1	0.964610600029118	0	0	0.665497670476772	0.567180720941672	1	0
"03"	"main"	174	1	0.685674900072627	0	0	0.663773888550375	0.541324753942782	0	0
"03"	"main"	175	0	0.772430499899201	1	0	0.640010967603257	0.510985021725165	1	0
"03"	"main"	176	1	0.807063299929723	1	0	0.509400184169286	0.561823077201915	1	1
"03"	"main"	177	0	0.825573999900371	1	0	0.599474691753887	0.605336780056135	1	1
"03"	"main"	178	1	0.897586799925193	1	0	0.535581308647342	0.57808575644893	1	1
"03"	"main"	179	0	0.89550360001158	1	0	0.640498270868215	0.551108355150418	1	0
"03"	"main"	180	1	0.724822400021367	0	0	0.610573840156063	0.4987428744541	1	0
"03"	"main"	181	1	2.20175300003029	1	0	0.754775722092426	0.426050138987263	1	1
"03"	"main"	182	1	0.929501399979927	1	1	0.808613709814397	0.450898107723797	1	1
"03"	"main"	183	0	0.769312200020067	1	0	0.793473204329693	0.423510411823786	1	1
"03"	"main"	184	0	1.12437489989679	1	1	0.882547017984216	0.417061449893614	1	1
"03"	"main"	185	1	0.834803499979898	0	0	0.844624205423092	0.48621186437157	1	0
"03"	"main"	186	1	0.970756799913943	0	0	0.815359071721132	0.49751038133828	1	0
"03"	"main"	187	0	0.735711199929938	1	0	0.742126453580042	0.530060973197108	1	0
"03"	"main"	188	0	1.0808023000136	1	0	0.781218211589577	0.482477249276747	1	0
"03"	"main"	189	0	1.09280600002967	0	0	0.5	0.5	0	0
"03"	"main"	190	1	0.746860600076616	1	0	0.426256785365754	0.518372018615903	1	1
"03"	"main"	191	1	0.859469100018032	1	0	0.390615288043338	0.558885252951831	1	1
"03"	"main"	192	1	0.859822999918833	1	1	0.417720220579349	0.513015887539214	1	1
"03"	"main"	193	1	0.874386799987406	0	0	0.421362100805762	0.512372966648582	1	0
"03"	"main"	194	0	0.749687900068238	0	0	0.396394887839748	0.489860576931913	0	1
"03"	"main"	195	1	0.86752680002246	0	0	0.531174701960184	0.441806898997427	1	0
"03"	"main"	196	0	0.930311299976893	0	0	0.529470078245538	0.412456963479004	0	0
"03"	"main"	197	1	0.827393200015649	1	0	0.43199073072734	0.440798510346862	0	1
"03"	"main"	198	1	1.07512330007739	0	0	0.532744303534784	0.319535739981654	0	0
"03"	"main"	199	1	0.697438500006683	1	0	0.64360565536582	0.392998621823113	0	1
"03"	"main"	200	0	0.815516199916601	1	0	0.578161391422245	0.442473847633005	1	1
"04"	"practice"	1	NA	NA	0	2	0.604881337828525	0.589525917668432	1	1
"04"	"practice"	2	0	1.26429449999705	0	0	0.645066269995826	0.532447233773351	0	0
"04"	"practice"	3	1	0.693374100024812	1	0	0.654473030423628	0.482017439868693	0	1
"04"	"practice"	4	1	1.32361630001105	0	0	0.629507027346635	0.425239754151142	1	0
"04"	"practice"	5	0	0.92007640004158	0	0	0.567942102341643	0.440449976972787	0	1
"04"	"practice"	6	1	0.780104300007224	0	0	0.505726561250371	0.476793700416252	1	0
"04"	"practice"	7	0	0.447086000000127	1	0	0.529910496170263	0.587505271668409	1	1
"04"	"practice"	8	1	1.18128920008894	1	0	0.403093949864824	0.691271920703381	1	1
"04"	"practice"	9	0	1.08812570001464	0	0	0.409857653071742	0.703002110217567	0	0
"04"	"practice"	10	0	1.21073389996309	0	0	0.4852593686873	0.613353842112282	0	0
"04"	"practice"	11	0	1.18712440005038	1	1	0.59824003013271	0.461101717539086	1	0
"04"	"practice"	12	1	1.04577149997931	0	0	0.57	0.57	1	0
"04"	"practice"	13	0	0.720807900070213	0	0	0.579271345360071	0.574325757250551	0	1
"04"	"practice"	14	0	0.553668800042942	1	0	0.520958560184316	0.543036659813899	1	1
"04"	"practice"	15	0	2.92153380007949	1	0	0.571306215105765	0.607148172349547	1	1
"04"	"main"	1	0	1.09352190000936	0	0	0.555576435403334	0.507331683071509	0	1
"04"	"main"	2	1	1.07328020001296	0	0	0.617351606142968	0.472209838262183	0	0
"04"	"main"	3	0	0.42468519997783	1	1	0.699814965848408	0.487189152330699	1	0
"04"	"main"	4	0	0.602164199925028	1	0	0.647251259999374	0.490570523148508	1	0
"04"	"main"	5	1	0.499010299914517	0	0	0.570538538035546	0.38222945411427	1	0
"04"	"main"	6	0	0.631482299999334	0	0	0.533687942383755	0.399934441997411	0	1
"04"	"main"	7	1	0.933364299940877	0	0	0.67666269149968	0.349401476995449	0	0
"04"	"main"	8	0	1.33012610010337	0	0	0.57461080493042	0.327510490836703	0	0
"04"	"main"	9	0	1.21369479992427	1	1	0.582284452413071	0.347729048417966	1	0
"04"	"main"	10	1	0.639603200019337	1	0	0.527791598529542	0.350367798239185	0	1
"04"	"main"	11	0	1.27307550003752	1	0	0.622098546707874	0.374150404794546	1	0
"04"	"main"	12	1	0.774087300058454	1	0	0.707187656210176	0.315027381896704	1	1
"04"	"main"	13	0	0.587051399983466	1	0	0.658319424029582	0.310095470511548	1	0
"04"	"main"	14	1	0.867690999992192	0	0	0.71509836871154	0.26558924336044	0	0
"04"	"main"	15	0	0.587949399952777	0	0	0.793784173387864	0.19788014979461	0	0
"04"	"main"	16	0	0.448830899898894	1	1	0.762025637902687	0.264268040786613	1	1
"04"	"main"	17	1	0.69137289992068	0	0	0.817794370837621	0.228816438657858	1	0
"04"	"main"	18	1	0.383026800001971	0	0	0.943505627675994	0.134531368694185	1	0
"04"	"main"	19	0	0.469712099991739	1	0	0.88042539427006	0.126117376695722	1	0
"04"	"main"	20	0	0.429404100053944	0	0	0.88141419902209	0.167715162454051	0	0
"04"	"main"	21	0	0.737899799947627	1	0	0.926475070515252	0.196257369156	1	0
"04"	"main"	22	1	0.85395429993514	1	1	0.762212792355211	0.240827910004588	1	1
"04"	"main"	23	1	0.979498599888757	0	0	0.832741819082016	0.242376315383812	1	0
"04"	"main"	24	1	0.420466399984434	1	0	0.87572801016491	0.210653147288722	1	1
"04"	"main"	25	1	0.933954500011168	0	0	0.901392550517004	0.287858765558841	0	0
"04"	"main"	26	1	1.45342179993168	1	0	0.5	0.5	0	1
"04"	"main"	27	1	1.10918940010015	0	0	0.47198289108407	0.479630803239395	0	0
"04"	"main"	28	0	1.43363210000098	0	0	0.451300860354397	0.563081093554472	0	1
"04"	"main"	29	1	0.668915900052525	1	0	0.344672941990869	0.579265483657169	1	1
"04"	"main"	30	1	1.87774689996149	0	0	0.337454289592964	0.594321228446069	1	0
"04"	"main"	31	1	0.433899000054225	0	0	0.367445229764992	0.580178205706305	1	0
"04"	"main"	32	0	1.01961590000428	0	0	0.497671249472267	0.58248521812116	0	1
"04"	"main"	33	0	0.949477599933744	1	1	0.333359355352326	0.623555180838034	1	1
"04"	"main"	34	1	0.50641330005601	1	0	0.241652282988025	0.686746779602761	0	1
"04"	"main"	35	0	0.329089500010014	1	0	0.195454841650344	0.661038457638478	1	1
"04"	"main"	36	0	0.348756300052628	0	0	0.180653959002254	0.685892261089408	0	1
"04"	"main"	37	1	0.57286600000225	0	0	0.258591041399634	0.712566846639682	1	0
"04"	"main"	38	1	0.640892100054771	1	0	0.303400046978359	0.719395712538573	1	1
"04"	"main"	39	0	1.68846229999326	1	1	0.277412315124341	0.749736745991295	1	1
"04"	"main"	40	1	0.459004699951038	1	0	0.320351770924529	0.776182387945535	0	1
"04"	"main"	41	1	0.561821999959648	1	0	0.26847779415513	0.880962369563303	0	1
"04"	"main"	42	1	0.623658300028183	1	0	0.334608505925852	0.834700648247268	1	1
"04"	"main"	43	1	0.522911899955943	1	1	0.257925492353917	0.867215787680252	0	1
"04"	"main"	44	1	0.52510720002465	1	0	0.407413615867797	0.783146094047992	0	1
"04"	"main"	45	1	0.351482100086287	1	0	0.425344217763901	0.826438187211729	0	1
"04"	"main"	46	0	1.78070420003496	1	0	0.466287605695082	0.82276383754746	1	1
"04"	"main"	47	1	1.02988029993139	0	0	0.46997818613805	0.83942550003661	1	0
"04"	"main"	48	0	1.05068139999639	1	1	0.509206483141894	0.791160598984749	1	1
"04"	"main"	49	1	0.522900499985553	1	0	0.518408421999646	0.772768505769246	0	1
"04"	"main"	50	1	2.02274540008511	1	0	0.563742787765027	0.821121422404046	0	1
"04"	"main"	51	1	0.686520699993707	1	0	0.476613123106746	0.844272177412898	1	1
"04"	"main"	52	1	0.520343799958937	1	1	0.51016316381515	0.875986259295828	0	1
"04"	"main"	53	0	0.51340140006505	0	0	0.537304612055424	0.945703829793078	0	1
"04"	"main"	54	1	0.351454799994826	1	0	0.5	0.5	1	1
"04"	"main"	55	0	0.752976599964313	1	0	0.581265985279672	0.492952738728127	1	1
"04"	"main"	56	0	0.741328799980693	1	0	0.532370029676829	0.517844152000677	1	0
"04"	"main"	57	1	0.669063900015317	1	0	0.63320557342562	0.532542370027412	0	1
"04"	"main"	58	0	0.80424700002186	0	0	0.616819735713173	0.575295028107811	0	0
"04"	"main"	59	1	1.036583899986	1	0	0.620794210781112	0.529700206254975	1	1
"04"	"main"	60	1	0.836049200035632	0	0	0.692799118934886	0.472623485360633	1	0
"04"	"main"	61	0	1.08761919999961	1	1	0.630777930827792	0.540848790223134	1	0
"04"	"main"	62	0	0.431009400053881	1	0	0.601061016580427	0.562953817181234	1	1
"04"	"main"	63	1	0.731042900006287	1	1	0.593862827930525	0.548533525677581	1	1
"04"	"main"	64	1	0.907444400014356	1	0	0.51746526747761	0.560305780952636	1	1
"04"	"main"	65	1	0.471627699909732	0	0	0.590323363542731	0.48845822531535	0	0
"04"	"main"	66	1	0.670699199894443	0	0	0.592687065368938	0.383879183802933	0	0
"04"	"main"	67	1	0.340766799985431	0	0	0.58924031324363	0.381747507619132	1	0
"04"	"main"	68	0	0.464168399921618	1	0	0.727502686452927	0.324306692712727	1	0
"04"	"main"	69	1	0.669336999999359	1	0	0.798098041342449	0.354191505079017	0	1
"04"	"main"	70	1	0.371282000094652	0	0	0.769515334621779	0.383505458471255	1	0
"04"	"main"	71	0	2.0493465999607	0	0	0.665364536110592	0.412817177867354	0	1
"04"	"main"	72	0	0.489823400042951	1	0	0.607366195511558	0.431039872074443	1	1
"04"	"main"	73	1	0.35298349999357	0	0	0.594239791388308	0.483238078737103	1	0
"04"	"main"	74	0	0.507385900011286	0	0	0.589686914891419	0.525766234996639	0	0
"04"	"main"	75	1	0.489233999978751	0	0	0.642577814277618	0.43966694642038	1	0
"04"	"main"	76	0	1.39775569993071	1	1	0.730027467478255	0.395708791004312	1	1
"04"	"main"	77	1	0.806605400051922	0	0	0.718655019614009	0.424261688642449	0	0
"04"	"main"	78	0	0.354208900011145	1	0	0.730571802690875	0.432145925689092	1	0
"04"	"main"	79	0	0.747097500017844	0	0	0.737094261581743	0.430767658249591	0	1
"04"	"main"	80	0	0.824489600025117	0	0	0.5	0.5	0	0
"04"	"main"	81	1	0.592779199942015	0	0	0.513284052484818	0.529381893465876	1	0
"04"	"main"	82	1	0.401271900045686	1	0	0.464237721337896	0.496110214648747	0	1
"04"	"main"	83	1	1.27921110007446	0	0	0.560232697166105	0.457334075535608	1	0
"04"	"main"	84	1	0.384648600011133	0	0	0.511686352492163	0.578046346662422	1	0
"04"	"main"	85	0	0.418590400018729	0	0	0.404712233277053	0.579079000934035	0	0
"04"	"main"	86	1	0.451637099962682	1	0	0.369480929922246	0.586283126921434	0	1
"04"	"main"	87	1	0.516507699969225	0	0	0.322503794003764	0.6022945459428	1	0
"04"	"main"	88	1	0.678763399948366	0	0	0.134268809062603	0.68667236002214	0	0
"04"	"main"	89	1	0.602104400051758	1	0	0.155506573332876	0.754635522854535	0	1
"04"	"main"	90	1	0.578483000048436	0	0	0.283048064664192	0.791457380346444	0	0
"04"	"main"	91	1	0.976472600013949	1	1	0.19317586964517	0.787845018926644	0	1
"04"	"main"	92	1	0.570133099914528	0	0	0.075350179431446	0.823414337226662	0	0
"04"	"main"	93	1	0.591780600021593	1	0	0.135469385940853	0.79989086148191	0	1
"04"	"main"	94	1	0.454423999995924	1	0	0.217975644875593	0.742074077104262	0	1
"04"	"main"	95	0	0.870437799952924	1	1	0.223236868031375	0.639476235501221	1	1
"04"	"main"	96	1	0.680611499934457	1	0	0.190931682376356	0.670119146188176	1	1
"04"	"main"	97	1	1.38672269997187	0	0	0.164795697644265	0.71350148522623	0	0
"04"	"main"	98	1	0.740932899992913	1	0	0.0587941918366612	0.739150293757189	0	1
"04"	"main"	99	1	0.699980799923651	1	0	0.0846386055056624	0.73040362051332	0	1
"04"	"main"	100	0	1.05667169997469	0	0	0.0958368123128416	0.721685277856616	0	0
"04"	"main"	101	1	0.902609100099653	1	1	0.053832202433148	0.786722132494019	1	1
"04"	"main"	102	0	0.574319500010461	0	0	0	0.761102685007765	0	1
"04"	"main"	103	1	1.48347910004668	1	0	0	0.776693933273524	0	1
"04"	"main"	104	1	0.485081400023773	1	0	0	0.819564368191025	0	1
"04"	"main"	105	1	0.475860000005923	1	0	0	0.810267750183304	0	1
"04"	"main"	106	1	0.587891400093213	1	0	0	0.820339913457968	0	1
"04"	"main"	107	1	0.48001459997613	1	0	0.0169675199114359	0.786492443657461	0	1
"04"	"main"	108	1	0.526874199975282	0	0	0.0847207455288439	0.736577461464901	0	0
"04"	"main"	109	0	0.521876100101508	0	0	0.147279284182769	0.763419735393831	0	1
"04"	"main"	110	1	0.923509299987927	0	0	0.276613254699233	0.69523828467482	1	0
"04"	"main"	111	0	0.689558999962173	1	1	0.334862500999842	0.700265090623073	1	1
"04"	"main"	112	0	0.673069400014356	1	0	0.340851040222599	0.802727392986362	1	1
"04"	"main"	113	0	0.407185700023547	1	1	0.331092352609128	0.827928328365019	1	1
"04"	"main"	114	0	0.426141200005077	0	0	0.319566889529114	0.846724315813175	0	1
"04"	"main"	115	1	0.459524500067346	1	0	0.303641050955141	0.831844126631785	0	1
"04"	"main"	116	1	0.374932699953206	1	0	0.284672808527294	0.759483115493039	0	1
"04"	"main"	117	1	0.376956899999641	1	0	0.5	0.5	0	1
"04"	"main"	118	1	0.459973199991509	1	0	0.405077546213323	0.510300271308326	0	1
"04"	"main"	119	1	0.559944799984805	0	0	0.397778822904832	0.48664531969944	0	0
"04"	"main"	120	0	0.433511500013992	1	0	0.440227728735338	0.476095245182856	1	0
"04"	"main"	121	0	0.520329999970272	0	0	0.560466054257797	0.456445984403029	0	1
"04"	"main"	122	0	0.965030399966054	0	0	0.706278861372574	0.432990014976055	0	0
"04"	"main"	123	1	0.564365700003691	1	1	0.775883980754819	0.37127124175343	1	1
"04"	"main"	124	0	0.525865299976431	0	0	0.738178998808561	0.437391583248021	0	1
"04"	"main"	125	1	0.48224439995829	1	0	0.815619220372362	0.441031762172044	0	1
"04"	"main"	126	1	0.608766700024717	1	1	0.769173539714637	0.48319048325766	0	1
"04"	"main"	127	0	0.618281000060961	1	0	0.816871360996698	0.44181720197392	1	1
"04"	"main"	128	0	0.560697100008838	1	0	0.777819424053782	0.444761773899252	1	0
"04"	"main"	129	0	0.636151600047015	1	0	0.796282845738995	0.506536377722022	1	1
"04"	"main"	130	0	0.604415099951439	0	0	0.759640091552668	0.481896203282857	0	1
"04"	"main"	131	0	1.70827689999714	1	1	0.742439930001268	0.515673733948945	1	1
"04"	"main"	132	1	0.434403299936093	0	0	0.799195276284513	0.476301145819806	1	0
"04"	"main"	133	0	0.74977749993559	0	0	0.833458746526229	0.453408391893157	0	0
"04"	"main"	134	0	0.341843400034122	1	0	0.802342961074014	0.412044398220306	1	0
"04"	"main"	135	0	0.272308100014925	1	0	0.730423115232099	0.400014075322617	1	0
"04"	"main"	136	1	0.585037100012414	0	0	0.5	0.5	1	0
"04"	"main"	137	0	0.327435700106435	1	0	0.563226966158004	0.458207236747252	1	1
"04"	"main"	138	0	0.347738299984485	1	0	0.53976186590742	0.472714308421327	1	1
"04"	"main"	139	1	0.310398999950849	0	0	0.588316793163036	0.424622275044204	1	0
"04"	"main"	140	1	0.484813799965195	0	0	0.635770036918279	0.37222685875581	1	0
"04"	"main"	141	1	0.284204899915494	1	1	0.701673117903269	0.288366935868049	1	1
"04"	"main"	142	1	0.474865700001828	0	0	0.786199766788735	0.292400248129942	1	0
"04"	"main"	143	0	2.02019880001899	1	0	0.801558914133946	0.278068053705081	1	0
"04"	"main"	144	0	0.528614499955438	0	0	0.711825591902403	0.333563855604912	0	1
"04"	"main"	145	1	0.314162900089286	0	0	0.836552661143969	0.242906523675509	1	0
"04"	"main"	146	1	0.447970399982296	0	0	0.93136678309911	0.240924262992941	1	0
"04"	"main"	147	0	0.516807400039397	1	1	0.926258165763239	0.297632339923293	1	0
"04"	"main"	148	0	1.22612999996636	1	0	0.91256657949796	0.221515795365011	1	1
"04"	"main"	149	0	0.491128999972716	1	0	0.990241433126796	0.201776923302138	1	0
"04"	"main"	150	0	0.521718600066379	1	0	0.962731795952263	0.17303633054313	1	0
"04"	"main"	151	1	1.0226819999516	0	0	0.92175542619492	0.15473994938277	0	0
"04"	"main"	152	0	0.452417499967851	1	0	1	0.164672178808671	1	0
"04"	"main"	153	0	0.872131699929014	1	1	0.930506169619434	0.26191500591662	1	0
"04"	"main"	154	1	0.5623704000609	0	0	0.905506746872117	0.334798524486805	1	0
"04"	"main"	155	1	0.360194000066258	0	0	0.950615577177758	0.320136614146252	1	0
"04"	"main"	156	0	0.640328099951148	1	0	0.896741143190184	0.339566573481006	1	0
"04"	"main"	157	0	0.715365000069141	1	0	0.853040085573585	0.356676149018156	1	0
"04"	"main"	158	0	0.854866200010292	1	0	0.913921060894133	0.34536544295981	1	0
"04"	"main"	159	0	0.534671700093895	1	0	0.964206878257592	0.372186971547234	1	1
"04"	"main"	160	0	1.18871030001901	0	0	0.910165798806356	0.368600121200789	0	0
"04"	"main"	161	0	0.454887200030498	1	0	0.948042451680344	0.414897360782146	1	0
"04"	"main"	162	0	0.342718999949284	1	1	1	0.365569905181243	1	0
"04"	"main"	163	1	1.44253100000788	1	0	1	0.366436766884944	1	1
"04"	"main"	164	1	0.481600499944761	1	0	1	0.324464777928894	1	1
"04"	"main"	165	1	0.540280100074597	0	0	1	0.320116306620486	1	0
"04"	"main"	166	1	0.856296699959785	1	0	1	0.38969753607428	1	1
"04"	"main"	167	1	0.615625099977478	1	1	0.5	0.5	1	1
"04"	"main"	168	0	0.505561699974351	0	0	0.50351658969195	0.524536755874787	0	0
"04"	"main"	169	1	1.11583439994138	0	0	0.67385711399424	0.517666871825377	1	0
"04"	"main"	170	0	0.806221800041385	0	0	0.628463278214603	0.559855969252727	0	0
"04"	"main"	171	1	0.424457099987194	0	0	0.684814796729482	0.554699720379085	0	0
"04"	"main"	172	1	0.34070000005886	1	0	0.527911762897882	0.648399136382813	0	1
"04"	"main"	173	1	0.827022999990731	0	0	0.665497670476772	0.567180720941672	1	0
"04"	"main"	174	1	0.331949800020084	0	0	0.663773888550375	0.541324753942782	0	0
"04"	"main"	175	0	0.470632400014438	1	0	0.640010967603257	0.510985021725165	1	0
"04"	"main"	176	0	0.482657400076278	1	1	0.509400184169286	0.561823077201915	1	1
"04"	"main"	177	0	0.716445700032637	1	0	0.599474691753887	0.605336780056135	1	1
"04"	"main"	178	0	0.587369599961676	1	1	0.535581308647342	0.57808575644893	1	1
"04"	"main"	179	1	0.997120599960908	0	0	0.640498270868215	0.551108355150418	1	0
"04"	"main"	180	0	0.514648300013505	1	0	0.610573840156063	0.4987428744541	1	0
"04"	"main"	181	0	0.44862020004075	1	0	0.754775722092426	0.426050138987263	1	1
"04"	"main"	182	0	0.826656099990942	1	0	0.808613709814397	0.450898107723797	1	1
"04"	"main"	183	0	0.823210700065829	1	0	0.793473204329693	0.423510411823786	1	1
"04"	"main"	184	0	0.726265300065279	1	0	0.882547017984216	0.417061449893614	1	1
"04"	"main"	185	0	0.554052900057286	1	0	0.844624205423092	0.48621186437157	1	0
"04"	"main"	186	1	0.606367400032468	0	0	0.815359071721132	0.49751038133828	1	0
"04"	"main"	187	0	0.586735000018962	1	1	0.742126453580042	0.530060973197108	1	0
"04"	"main"	188	1	1.31596470007207	0	0	0.781218211589577	0.482477249276747	1	0
"04"	"main"	189	0	0.481536000035703	0	0	0.5	0.5	0	0
"04"	"main"	190	0	0.593992399983108	1	0	0.426256785365754	0.518372018615903	1	1
"04"	"main"	191	0	0.726595300016925	1	1	0.390615288043338	0.558885252951831	1	1
"04"	"main"	192	0	0.628910999977961	1	0	0.417720220579349	0.513015887539214	1	1
"04"	"main"	193	0	0.461473400006071	1	0	0.421362100805762	0.512372966648582	1	0
"04"	"main"	194	0	0.71999270003289	0	0	0.396394887839748	0.489860576931913	0	1
"04"	"main"	195	1	0.333720099995844	0	0	0.531174701960184	0.441806898997427	1	0
"04"	"main"	196	0	1.56993130000774	0	0	0.529470078245538	0.412456963479004	0	0
"04"	"main"	197	0	0.510272999992594	0	0	0.43199073072734	0.440798510346862	0	1
"04"	"main"	198	1	0.491951799951494	0	0	0.532744303534784	0.319535739981654	0	0
"04"	"main"	199	0	0.923806500039063	0	0	0.64360565536582	0.392998621823113	0	1
"04"	"main"	200	1	1.33687350002583	1	0	0.578161391422245	0.442473847633005	1	1
"05"	"practice"	1	1	3.33545100002084	1	0	0.604881337828525	0.589525917668432	1	1
"05"	"practice"	2	0	1.99108499998692	0	0	0.645066269995826	0.532447233773351	0	0
"05"	"practice"	3	1	1.80571739992592	1	0	0.654473030423628	0.482017439868693	0	1
"05"	"practice"	4	0	2.10854909999762	1	0	0.629507027346635	0.425239754151142	1	0
"05"	"practice"	5	1	1.42615810001735	1	1	0.567942102341643	0.440449976972787	0	1
"05"	"practice"	6	0	2.59227729996201	1	0	0.505726561250371	0.476793700416252	1	0
"05"	"practice"	7	0	1.51074019994121	1	0	0.529910496170263	0.587505271668409	1	1
"05"	"practice"	8	1	1.84463320008945	1	1	0.403093949864824	0.691271920703381	1	1
"05"	"practice"	9	0	1.45882589998655	0	0	0.409857653071742	0.703002110217567	0	0
"05"	"practice"	10	1	1.75984269997571	0	0	0.4852593686873	0.613353842112282	0	0
"05"	"practice"	11	1	2.2516856000293	0	0	0.59824003013271	0.461101717539086	1	0
"05"	"practice"	12	0	1.13954310002737	1	0	0.57	0.57	1	0
"05"	"practice"	13	0	1.97970749996603	0	0	0.579271345360071	0.574325757250551	0	1
"05"	"practice"	14	1	1.4232887000544	1	1	0.520958560184316	0.543036659813899	1	1
"05"	"practice"	15	1	1.30640030000359	1	0	0.571306215105765	0.607148172349547	1	1
"05"	"main"	1	1	1.63444269995671	1	0	0.555576435403334	0.507331683071509	0	1
"05"	"main"	2	1	2.41957039991394	0	0	0.617351606142968	0.472209838262183	0	0
"05"	"main"	3	1	1.88202029990498	0	0	0.699814965848408	0.487189152330699	1	0
"05"	"main"	4	0	1.98649779998232	1	0	0.647251259999374	0.490570523148508	1	0
"05"	"main"	5	1	2.42142489994876	0	0	0.570538538035546	0.38222945411427	1	0
"05"	"main"	6	1	1.72504309995566	1	0	0.533687942383755	0.399934441997411	0	1
"05"	"main"	7	0	1.0587702000048	0	0	0.67666269149968	0.349401476995449	0	0
"05"	"main"	8	1	1.81471639999654	0	0	0.57461080493042	0.327510490836703	0	0
"05"	"main"	9	0	1.52844020002522	1	1	0.582284452413071	0.347729048417966	1	0
"05"	"main"	10	0	3.08214969991241	0	0	0.527791598529542	0.350367798239185	0	1
"05"	"main"	11	1	2.27073350001592	0	0	0.622098546707874	0.374150404794546	1	0
"05"	"main"	12	0	1.23803649994079	1	0	0.707187656210176	0.315027381896704	1	1
"05"	"main"	13	1	2.35619069996756	0	0	0.658319424029582	0.310095470511548	1	0
"05"	"main"	14	0	0.742853799951263	0	0	0.71509836871154	0.26558924336044	0	0
"05"	"main"	15	0	2.92058479995467	0	0	0.793784173387864	0.19788014979461	0	0
"05"	"main"	16	1	2.55895610002335	1	0	0.762025637902687	0.264268040786613	1	1
"05"	"main"	17	1	1.16144389996771	0	0	0.817794370837621	0.228816438657858	1	0
"05"	"main"	18	1	1.00456949998625	0	0	0.943505627675994	0.134531368694185	1	0
"05"	"main"	19	0	0.468559100059792	1	1	0.88042539427006	0.126117376695722	1	0
"05"	"main"	20	0	0.540192999993451	0	0	0.88141419902209	0.167715162454051	0	0
"05"	"main"	21	0	1.95062099990901	1	0	0.926475070515252	0.196257369156	1	0
"05"	"main"	22	0	0.632073800079525	1	0	0.762212792355211	0.240827910004588	1	1
"05"	"main"	23	1	1.30795269994996	0	0	0.832741819082016	0.242376315383812	1	0
"05"	"main"	24	0	0.803845299989916	1	0	0.87572801016491	0.210653147288722	1	1
"05"	"main"	25	0	1.22397379996255	0	0	0.901392550517004	0.287858765558841	0	0
"05"	"main"	26	0	1.09342329995707	0	0	0.5	0.5	0	1
"05"	"main"	27	1	0.727430099970661	0	0	0.47198289108407	0.479630803239395	0	0
"05"	"main"	28	1	1.32214299996849	1	1	0.451300860354397	0.563081093554472	0	1
"05"	"main"	29	0	1.35078280000016	1	0	0.344672941990869	0.579265483657169	1	1
"05"	"main"	30	0	0.486012600013055	1	0	0.337454289592964	0.594321228446069	1	0
"05"	"main"	31	1	2.84996420005336	0	0	0.367445229764992	0.580178205706305	1	0
"05"	"main"	32	0	0.668422800023109	0	0	0.497671249472267	0.58248521812116	0	1
"05"	"main"	33	1	0.56454150006175	1	0	0.333359355352326	0.623555180838034	1	1
"05"	"main"	34	1	1.06893029995263	1	1	0.241652282988025	0.686746779602761	0	1
"05"	"main"	35	0	2.5841554000508	1	0	0.195454841650344	0.661038457638478	1	1
"05"	"main"	36	0	1.6065747999819	0	0	0.180653959002254	0.685892261089408	0	1
"05"	"main"	37	1	1.80331939994358	0	0	0.258591041399634	0.712566846639682	1	0
"05"	"main"	38	0	0.654587300028652	1	0	0.303400046978359	0.719395712538573	1	1
"05"	"main"	39	0	0.576379799982533	1	0	0.277412315124341	0.749736745991295	1	1
"05"	"main"	40	1	1.42852910002694	1	1	0.320351770924529	0.776182387945535	0	1
"05"	"main"	41	1	0.985836599953473	1	0	0.26847779415513	0.880962369563303	0	1
"05"	"main"	42	1	1.42036750004627	1	0	0.334608505925852	0.834700648247268	1	1
"05"	"main"	43	1	1.89113939995877	1	0	0.257925492353917	0.867215787680252	0	1
"05"	"main"	44	0	2.74066390004009	0	0	0.407413615867797	0.783146094047992	0	1
"05"	"main"	45	0	1.47933070000727	0	0	0.425344217763901	0.826438187211729	0	1
"05"	"main"	46	0	0.533510799985379	1	1	0.466287605695082	0.82276383754746	1	1
"05"	"main"	47	0	1.34074530005455	1	0	0.46997818613805	0.83942550003661	1	0
"05"	"main"	48	1	3.28378749999683	1	0	0.509206483141894	0.791160598984749	1	1
"05"	"main"	49	1	1.81073010002729	1	0	0.518408421999646	0.772768505769246	0	1
"05"	"main"	50	NA	NA	0	2	0.563742787765027	0.821121422404046	0	1
"05"	"main"	51	0	0.580488700070418	1	1	0.476613123106746	0.844272177412898	1	1
"05"	"main"	52	1	0.661970200017095	1	0	0.51016316381515	0.875986259295828	0	1
"05"	"main"	53	0	0.717212999938056	0	0	0.537304612055424	0.945703829793078	0	1
"05"	"main"	54	1	0.686339500010945	1	0	0.5	0.5	1	1
"05"	"main"	55	0	1.47190230002161	1	0	0.581265985279672	0.492952738728127	1	1
"05"	"main"	56	1	1.22521200007759	0	0	0.532370029676829	0.517844152000677	1	0
"05"	"main"	57	0	0.540466499980539	0	0	0.63320557342562	0.532542370027412	0	1
"05"	"main"	58	1	0.648869100026786	0	0	0.616819735713173	0.575295028107811	0	0
"05"	"main"	59	0	1.74269260000437	1	0	0.620794210781112	0.529700206254975	1	1
"05"	"main"	60	0	1.73025010002311	1	0	0.692799118934886	0.472623485360633	1	0
"05"	"main"	61	0	0.529336399980821	1	1	0.630777930827792	0.540848790223134	1	0
"05"	"main"	62	1	1.59120160003658	1	0	0.601061016580427	0.562953817181234	1	1
"05"	"main"	63	1	0.528815799974836	1	1	0.593862827930525	0.548533525677581	1	1
"05"	"main"	64	0	1.15482570009772	1	0	0.51746526747761	0.560305780952636	1	1
"05"	"main"	65	1	1.38230729999486	0	0	0.590323363542731	0.48845822531535	0	0
"05"	"main"	66	0	1.05694959999528	0	0	0.592687065368938	0.383879183802933	0	0
"05"	"main"	67	1	0.536114700022154	0	0	0.58924031324363	0.381747507619132	1	0
"05"	"main"	68	0	0.619852700037882	1	0	0.727502686452927	0.324306692712727	1	0
"05"	"main"	69	0	0.947870099917054	0	0	0.798098041342449	0.354191505079017	0	1
"05"	"main"	70	0	1.4808583999984	1	0	0.769515334621779	0.383505458471255	1	0
"05"	"main"	71	1	1.41967890004162	1	0	0.665364536110592	0.412817177867354	0	1
"05"	"main"	72	1	2.37241680000443	1	1	0.607366195511558	0.431039872074443	1	1
"05"	"main"	73	1	1.99260949995369	0	0	0.594239791388308	0.483238078737103	1	0
"05"	"main"	74	0	0.727985300007276	0	0	0.589686914891419	0.525766234996639	0	0
"05"	"main"	75	0	0.777543299947865	1	0	0.642577814277618	0.43966694642038	1	0
"05"	"main"	76	0	0.425831300090067	1	0	0.730027467478255	0.395708791004312	1	1
"05"	"main"	77	0	0.712966500082985	0	0	0.718655019614009	0.424261688642449	0	0
"05"	"main"	78	0	0.628824200015515	1	0	0.730571802690875	0.432145925689092	1	0
"05"	"main"	79	1	1.16984330001287	1	0	0.737094261581743	0.430767658249591	0	1
"05"	"main"	80	0	0.770183500018902	0	0	0.5	0.5	0	0
"05"	"main"	81	0	1.31024369993247	1	1	0.513284052484818	0.529381893465876	1	0
"05"	"main"	82	1	2.19618450000416	1	0	0.464237721337896	0.496110214648747	0	1
"05"	"main"	83	0	1.79049809998833	1	0	0.560232697166105	0.457334075535608	1	0
"05"	"main"	84	0	2.50523069989868	1	1	0.511686352492163	0.578046346662422	1	0
"05"	"main"	85	1	1.38923289999366	0	0	0.404712233277053	0.579079000934035	0	0
"05"	"main"	86	0	0.787629200029187	0	0	0.369480929922246	0.586283126921434	0	1
"05"	"main"	87	0	0.478292700019665	1	0	0.322503794003764	0.6022945459428	1	0
"05"	"main"	88	1	1.46863439993467	0	0	0.134268809062603	0.68667236002214	0	0
"05"	"main"	89	1	0.778339899959974	1	0	0.155506573332876	0.754635522854535	0	1
"05"	"main"	90	0	2.56511269998737	0	0	0.283048064664192	0.791457380346444	0	0
"05"	"main"	91	1	0.534672400099225	1	0	0.19317586964517	0.787845018926644	0	1
"05"	"main"	92	1	1.36403019994032	0	0	0.075350179431446	0.823414337226662	0	0
"05"	"main"	93	0	0.571689700009301	0	0	0.135469385940853	0.79989086148191	0	1
"05"	"main"	94	1	0.619583500083536	1	1	0.217975644875593	0.742074077104262	0	1
"05"	"main"	95	1	0.428639900055714	1	0	0.223236868031375	0.639476235501221	1	1
"05"	"main"	96	1	0.595623800065368	1	0	0.190931682376356	0.670119146188176	1	1
"05"	"main"	97	1	1.62072310002986	0	0	0.164795697644265	0.71350148522623	0	0
"05"	"main"	98	0	0.646284500020556	0	0	0.0587941918366612	0.739150293757189	0	1
"05"	"main"	99	0	0.484282699995674	0	0	0.0846386055056624	0.73040362051332	0	1
"05"	"main"	100	1	0.386075000045821	0	0	0.0958368123128416	0.721685277856616	0	0
"05"	"main"	101	0	1.732038200018	1	0	0.053832202433148	0.786722132494019	1	1
"05"	"main"	102	1	0.721865000086837	1	0	0	0.761102685007765	0	1
"05"	"main"	103	0	0.629338400089182	0	0	0	0.776693933273524	0	1
"05"	"main"	104	0	0.683498999918811	0	0	0	0.819564368191025	0	1
"05"	"main"	105	0	0.749685000046156	0	0	0	0.810267750183304	0	1
"05"	"main"	106	0	0.826640899991617	0	0	0	0.820339913457968	0	1
"05"	"main"	107	1	0.513875799952075	1	0	0.0169675199114359	0.786492443657461	0	1
"05"	"main"	108	1	1.46666090004146	0	0	0.0847207455288439	0.736577461464901	0	0
"05"	"main"	109	0	0.545952699962072	0	0	0.147279284182769	0.763419735393831	0	1
"05"	"main"	110	1	0.790488000027835	0	0	0.276613254699233	0.69523828467482	1	0
"05"	"main"	111	0	0.631201900076121	1	1	0.334862500999842	0.700265090623073	1	1
"05"	"main"	112	1	0.360547299962491	1	0	0.340851040222599	0.802727392986362	1	1
"05"	"main"	113	0	0.323546799947508	1	1	0.331092352609128	0.827928328365019	1	1
"05"	"main"	114	1	0.448303799959831	1	0	0.319566889529114	0.846724315813175	0	1
"05"	"main"	115	1	0.444046599906869	1	0	0.303641050955141	0.831844126631785	0	1
"05"	"main"	116	1	0.450730699929409	1	0	0.284672808527294	0.759483115493039	0	1
"05"	"main"	117	0	0.441399300005287	0	0	0.5	0.5	0	1
"05"	"main"	118	1	0.386144999996759	1	0	0.405077546213323	0.510300271308326	0	1
"05"	"main"	119	0	0.436494500027038	0	0	0.397778822904832	0.48664531969944	0	0
"05"	"main"	120	1	0.70447720005177	0	0	0.440227728735338	0.476095245182856	1	0
"05"	"main"	121	1	1.82768010010477	1	0	0.560466054257797	0.456445984403029	0	1
"05"	"main"	122	0	0.707020499976352	0	0	0.706278861372574	0.432990014976055	0	0
"05"	"main"	123	1	0.474404599983245	1	1	0.775883980754819	0.37127124175343	1	1
"05"	"main"	124	1	1.74433559994213	1	0	0.738178998808561	0.437391583248021	0	1
"05"	"main"	125	1	0.490074999979697	1	1	0.815619220372362	0.441031762172044	0	1
"05"	"main"	126	1	1.22482320002746	1	0	0.769173539714637	0.48319048325766	0	1
"05"	"main"	127	1	0.433867100044154	1	0	0.816871360996698	0.44181720197392	1	1
"05"	"main"	128	1	0.487408500048332	0	0	0.777819424053782	0.444761773899252	1	0
"05"	"main"	129	0	0.453952400013804	1	0	0.796282845738995	0.506536377722022	1	1
"05"	"main"	130	0	0.458662699908018	0	0	0.759640091552668	0.481896203282857	0	1
"05"	"main"	131	1	0.635372099932283	1	1	0.742439930001268	0.515673733948945	1	1
"05"	"main"	132	1	0.705535999964923	0	0	0.799195276284513	0.476301145819806	1	0
"05"	"main"	133	0	0.493733800016344	0	0	0.833458746526229	0.453408391893157	0	0
"05"	"main"	134	0	0.747875900007784	1	0	0.802342961074014	0.412044398220306	1	0
"05"	"main"	135	0	0.451668700086884	1	0	0.730423115232099	0.400014075322617	1	0
"05"	"main"	136	0	0.442921200068668	1	0	0.5	0.5	1	0
"05"	"main"	137	0	0.601974599994719	1	0	0.563226966158004	0.458207236747252	1	1
"05"	"main"	138	1	1.24319350009318	1	1	0.53976186590742	0.472714308421327	1	1
"05"	"main"	139	1	0.773360099992715	0	0	0.588316793163036	0.424622275044204	1	0
"05"	"main"	140	0	0.441038999939337	1	0	0.635770036918279	0.37222685875581	1	0
"05"	"main"	141	0	0.756004099966958	1	1	0.701673117903269	0.288366935868049	1	1
"05"	"main"	142	0	0.72048470005393	1	0	0.786199766788735	0.292400248129942	1	0
"05"	"main"	143	0	1.07415839994792	1	0	0.801558914133946	0.278068053705081	1	0
"05"	"main"	144	1	1.65728379995562	1	0	0.711825591902403	0.333563855604912	0	1
"05"	"main"	145	1	0.395851899986155	0	0	0.836552661143969	0.242906523675509	1	0
"05"	"main"	146	1	1.43766779999714	0	0	0.93136678309911	0.240924262992941	1	0
"05"	"main"	147	0	0.379451200016774	1	0	0.926258165763239	0.297632339923293	1	0
"05"	"main"	148	0	0.718011799966916	1	1	0.91256657949796	0.221515795365011	1	1
"05"	"main"	149	1	1.27528860000893	0	0	0.990241433126796	0.201776923302138	1	0
"05"	"main"	150	0	0.393894000095315	1	0	0.962731795952263	0.17303633054313	1	0
"05"	"main"	151	0	0.505244500003755	0	0	0.92175542619492	0.15473994938277	0	0
"05"	"main"	152	1	0.623431900050491	0	0	1	0.164672178808671	1	0
"05"	"main"	153	0	0.758416099939495	1	0	0.930506169619434	0.26191500591662	1	0
"05"	"main"	154	0	1.36598430003505	1	0	0.905506746872117	0.334798524486805	1	0
"05"	"main"	155	1	0.494382199947722	0	0	0.950615577177758	0.320136614146252	1	0
"05"	"main"	156	1	0.594186899950728	0	0	0.896741143190184	0.339566573481006	1	0
"05"	"main"	157	0	0.356397300027311	1	0	0.853040085573585	0.356676149018156	1	0
"05"	"main"	158	0	1.54096420004498	1	0	0.913921060894133	0.34536544295981	1	0
"05"	"main"	159	0	0.397296400042251	1	1	0.964206878257592	0.372186971547234	1	1
"05"	"main"	160	1	0.504889600095339	0	0	0.910165798806356	0.368600121200789	0	0
"05"	"main"	161	1	0.641704399953596	0	0	0.948042451680344	0.414897360782146	1	0
"05"	"main"	162	0	0.586091000004672	1	0	1	0.365569905181243	1	0
"05"	"main"	163	1	1.59421779995319	1	0	1	0.366436766884944	1	1
"05"	"main"	164	1	1.75167090003379	1	0	1	0.324464777928894	1	1
"05"	"main"	165	0	0.738696799962781	1	1	1	0.320116306620486	1	0
"05"	"main"	166	1	0.595047499984503	1	0	1	0.38969753607428	1	1
"05"	"main"	167	0	0.428415199974552	1	0	0.5	0.5	1	1
"05"	"main"	168	0	0.532436400069855	0	0	0.50351658969195	0.524536755874787	0	0
"05"	"main"	169	0	0.550893799983896	1	1	0.67385711399424	0.517666871825377	1	0
"05"	"main"	170	1	0.533539399970323	0	0	0.628463278214603	0.559855969252727	0	0
"05"	"main"	171	0	0.60779719997663	0	0	0.684814796729482	0.554699720379085	0	0
"05"	"main"	172	1	0.572692599962465	1	0	0.527911762897882	0.648399136382813	0	1
"05"	"main"	173	1	0.551949899992906	0	0	0.665497670476772	0.567180720941672	1	0
"05"	"main"	174	0	0.59596149995923	0	0	0.663773888550375	0.541324753942782	0	0
"05"	"main"	175	1	0.527072599972598	0	0	0.640010967603257	0.510985021725165	1	0
"05"	"main"	176	0	0.701634700060822	1	1	0.509400184169286	0.561823077201915	1	1
"05"	"main"	177	1	0.704470700002275	1	0	0.599474691753887	0.605336780056135	1	1
"05"	"main"	178	1	0.589699900010601	1	0	0.535581308647342	0.57808575644893	1	1
"05"	"main"	179	0	0.824983600061387	1	0	0.640498270868215	0.551108355150418	1	0
"05"	"main"	180	0	0.453076100093313	1	0	0.610573840156063	0.4987428744541	1	0
"05"	"main"	181	0	0.354984400095418	1	0	0.754775722092426	0.426050138987263	1	1
"05"	"main"	182	0	0.345097000012174	1	0	0.808613709814397	0.450898107723797	1	1
"05"	"main"	183	1	0.440288400044665	1	1	0.793473204329693	0.423510411823786	1	1
"05"	"main"	184	1	0.780248900060542	1	0	0.882547017984216	0.417061449893614	1	1
"05"	"main"	185	0	0.405430999933742	1	1	0.844624205423092	0.48621186437157	1	0
"05"	"main"	186	0	0.549019099911675	1	0	0.815359071721132	0.49751038133828	1	0
"05"	"main"	187	0	0.373973399982788	1	0	0.742126453580042	0.530060973197108	1	0
"05"	"main"	188	0	0.837791400030255	1	0	0.781218211589577	0.482477249276747	1	0
"05"	"main"	189	0	0.435811599949375	0	0	0.5	0.5	0	0
"05"	"main"	190	1	0.43142220005393	1	0	0.426256785365754	0.518372018615903	1	1
"05"	"main"	191	1	0.759209799929522	1	1	0.390615288043338	0.558885252951831	1	1
"05"	"main"	192	0	0.421657600090839	1	0	0.417720220579349	0.513015887539214	1	1
"05"	"main"	193	1	0.424942699959502	0	0	0.421362100805762	0.512372966648582	1	0
"05"	"main"	194	0	0.335196500062011	0	0	0.396394887839748	0.489860576931913	0	1
"05"	"main"	195	1	0.499956399900839	0	0	0.531174701960184	0.441806898997427	1	0
"05"	"main"	196	1	0.393716700025834	0	0	0.529470078245538	0.412456963479004	0	0
"05"	"main"	197	0	0.297056900104508	0	0	0.43199073072734	0.440798510346862	0	1
"05"	"main"	198	1	0.614888500072993	0	0	0.532744303534784	0.319535739981654	0	0
"05"	"main"	199	0	0.345877300016582	0	0	0.64360565536582	0.392998621823113	0	1
"05"	"main"	200	1	0.413169200066477	1	0	0.578161391422245	0.442473847633005	1	1
"06"	"practice"	1	NA	NA	0	2	0.604881337828525	0.589525917668432	1	1
"06"	"practice"	2	0	0.876261400058866	0	0	0.645066269995826	0.532447233773351	0	0
"06"	"practice"	3	1	0.444782999926247	1	0	0.654473030423628	0.482017439868693	0	1
"06"	"practice"	4	1	0.332640799926594	0	0	0.629507027346635	0.425239754151142	1	0
"06"	"practice"	5	0	0.373419299954548	0	0	0.567942102341643	0.440449976972787	0	1
"06"	"practice"	6	1	0.434668099973351	0	0	0.505726561250371	0.476793700416252	1	0
"06"	"practice"	7	0	0.38475309999194	1	0	0.529910496170263	0.587505271668409	1	1
"06"	"practice"	8	0	0.402692399919033	1	0	0.403093949864824	0.691271920703381	1	1
"06"	"practice"	9	1	0.500624499982223	0	0	0.409857653071742	0.703002110217567	0	0
"06"	"practice"	10	0	0.45070659997873	0	0	0.4852593686873	0.613353842112282	0	0
"06"	"practice"	11	0	0.451262600021437	1	1	0.59824003013271	0.461101717539086	1	0
"06"	"practice"	12	1	1.01622610003687	0	0	0.57	0.57	1	0
"06"	"practice"	13	1	0.787434999947436	1	0	0.579271345360071	0.574325757250551	0	1
"06"	"practice"	14	0	1.07615909993183	1	0	0.520958560184316	0.543036659813899	1	1
"06"	"practice"	15	0	0.800644800066948	1	1	0.571306215105765	0.607148172349547	1	1
"06"	"main"	1	NA	NA	0	2	0.555576435403334	0.507331683071509	0	1
"06"	"main"	2	1	0.684117500088178	0	0	0.617351606142968	0.472209838262183	0	0
"06"	"main"	3	0	1.31079270003829	1	0	0.699814965848408	0.487189152330699	1	0
"06"	"main"	4	0	0.640131399966776	1	1	0.647251259999374	0.490570523148508	1	0
"06"	"main"	5	0	0.613267199951224	1	0	0.570538538035546	0.38222945411427	1	0
"06"	"main"	6	0	0.488430899917148	0	0	0.533687942383755	0.399934441997411	0	1
"06"	"main"	7	1	0.982542900019325	0	0	0.67666269149968	0.349401476995449	0	0
"06"	"main"	8	1	0.826677500037476	0	0	0.57461080493042	0.327510490836703	0	0
"06"	"main"	9	1	0.472611300065182	0	0	0.582284452413071	0.347729048417966	1	0
"06"	"main"	10	0	2.20601129997522	0	0	0.527791598529542	0.350367798239185	0	1
"06"	"main"	11	1	1.94803009997122	0	0	0.622098546707874	0.374150404794546	1	0
"06"	"main"	12	1	0.616330899996683	1	0	0.707187656210176	0.315027381896704	1	1
"06"	"main"	13	0	0.712003499967977	1	0	0.658319424029582	0.310095470511548	1	0
"06"	"main"	14	1	0.724444099934772	0	0	0.71509836871154	0.26558924336044	0	0
"06"	"main"	15	1	0.502431400003843	0	0	0.793784173387864	0.19788014979461	0	0
"06"	"main"	16	0	0.566444500000216	1	0	0.762025637902687	0.264268040786613	1	1
"06"	"main"	17	1	0.816051400033757	0	0	0.817794370837621	0.228816438657858	1	0
"06"	"main"	18	0	0.424656300107017	1	1	0.943505627675994	0.134531368694185	1	0
"06"	"main"	19	0	0.98452699999325	1	0	0.88042539427006	0.126117376695722	1	0
"06"	"main"	20	0	0.444449699949473	0	0	0.88141419902209	0.167715162454051	0	0
"06"	"main"	21	0	0.918874600087292	1	0	0.926475070515252	0.196257369156	1	0
"06"	"main"	22	1	0.413223200011998	1	1	0.762212792355211	0.240827910004588	1	1
"06"	"main"	23	1	0.491002800059505	0	0	0.832741819082016	0.242376315383812	1	0
"06"	"main"	24	0	0.547461100039072	1	0	0.87572801016491	0.210653147288722	1	1
"06"	"main"	25	0	1.73207329993602	0	0	0.901392550517004	0.287858765558841	0	0
"06"	"main"	26	1	0.495011599967256	1	0	0.5	0.5	0	1
"06"	"main"	27	0	0.529141400009394	0	0	0.47198289108407	0.479630803239395	0	0
"06"	"main"	28	1	0.604389699990861	1	0	0.451300860354397	0.563081093554472	0	1
"06"	"main"	29	0	0.994341999990866	1	1	0.344672941990869	0.579265483657169	1	1
"06"	"main"	30	1	0.556331299943849	0	0	0.337454289592964	0.594321228446069	1	0
"06"	"main"	31	0	0.489161200006492	1	0	0.367445229764992	0.580178205706305	1	0
"06"	"main"	32	0	0.589988699997775	0	0	0.497671249472267	0.58248521812116	0	1
"06"	"main"	33	1	0.486578800017014	1	0	0.333359355352326	0.623555180838034	1	1
"06"	"main"	34	0	0.314979500020854	0	0	0.241652282988025	0.686746779602761	0	1
"06"	"main"	35	1	0.512461200007237	1	0	0.195454841650344	0.661038457638478	1	1
"06"	"main"	36	0	1.68577910005115	0	0	0.180653959002254	0.685892261089408	0	1
"06"	"main"	37	1	0.276453700033017	0	0	0.258591041399634	0.712566846639682	1	0
"06"	"main"	38	1	1.41892089997418	1	1	0.303400046978359	0.719395712538573	1	1
"06"	"main"	39	1	0.42841229995247	1	0	0.277412315124341	0.749736745991295	1	1
"06"	"main"	40	0	0.24412879999727	0	0	0.320351770924529	0.776182387945535	0	1
"06"	"main"	41	1	1.70643249992281	1	0	0.26847779415513	0.880962369563303	0	1
"06"	"main"	42	1	1.78436509997118	1	0	0.334608505925852	0.834700648247268	1	1
"06"	"main"	43	1	1.13939749996644	1	1	0.257925492353917	0.867215787680252	0	1
"06"	"main"	44	1	0.730993899982423	1	0	0.407413615867797	0.783146094047992	0	1
"06"	"main"	45	1	0.982748899958096	1	0	0.425344217763901	0.826438187211729	0	1
"06"	"main"	46	1	0.735840299981646	1	0	0.466287605695082	0.82276383754746	1	1
"06"	"main"	47	1	0.691806099959649	0	0	0.46997818613805	0.83942550003661	1	0
"06"	"main"	48	1	1.96172749996185	1	1	0.509206483141894	0.791160598984749	1	1
"06"	"main"	49	1	0.707786899991333	1	0	0.518408421999646	0.772768505769246	0	1
"06"	"main"	50	1	0.844428399926983	1	0	0.563742787765027	0.821121422404046	0	1
"06"	"main"	51	1	1.49035889992956	1	0	0.476613123106746	0.844272177412898	1	1
"06"	"main"	52	1	0.517932999995537	1	1	0.51016316381515	0.875986259295828	0	1
"06"	"main"	53	1	0.40437609993387	1	0	0.537304612055424	0.945703829793078	0	1
"06"	"main"	54	1	0.436857799999416	1	0	0.5	0.5	1	1
"06"	"main"	55	1	0.381862499983981	1	0	0.581265985279672	0.492952738728127	1	1
"06"	"main"	56	1	0.372207899927162	0	0	0.532370029676829	0.517844152000677	1	0
"06"	"main"	57	1	0.375778699992225	1	0	0.63320557342562	0.532542370027412	0	1
"06"	"main"	58	1	0.485844600014389	0	0	0.616819735713173	0.575295028107811	0	0
"06"	"main"	59	1	0.430299600004219	1	0	0.620794210781112	0.529700206254975	1	1
"06"	"main"	60	1	0.370947499992326	0	0	0.692799118934886	0.472623485360633	1	0
"06"	"main"	61	1	0.452143899980001	0	0	0.630777930827792	0.540848790223134	1	0
"06"	"main"	62	0	0.465786600019783	1	1	0.601061016580427	0.562953817181234	1	1
"06"	"main"	63	0	0.49991189991124	1	0	0.593862827930525	0.548533525677581	1	1
"06"	"main"	64	0	0.482286800048314	1	1	0.51746526747761	0.560305780952636	1	1
"06"	"main"	65	0	0.379046100075357	0	0	0.590323363542731	0.48845822531535	0	0
"06"	"main"	66	0	0.444255599984899	0	0	0.592687065368938	0.383879183802933	0	0
"06"	"main"	67	1	0.38004999991972	0	0	0.58924031324363	0.381747507619132	1	0
"06"	"main"	68	0	0.619738699984737	1	0	0.727502686452927	0.324306692712727	1	0
"06"	"main"	69	0	0.404828600003384	0	0	0.798098041342449	0.354191505079017	0	1
"06"	"main"	70	0	2.75878389994614	1	0	0.769515334621779	0.383505458471255	1	0
"06"	"main"	71	0	0.458102200063877	0	0	0.665364536110592	0.412817177867354	0	1
"06"	"main"	72	1	0.393795900046825	1	0	0.607366195511558	0.431039872074443	1	1
"06"	"main"	73	1	0.344928800011985	0	0	0.594239791388308	0.483238078737103	1	0
"06"	"main"	74	1	0.394943500054069	0	0	0.589686914891419	0.525766234996639	0	0
"06"	"main"	75	1	0.443909600027837	0	0	0.642577814277618	0.43966694642038	1	0
"06"	"main"	76	0	0.380133499973454	1	0	0.730027467478255	0.395708791004312	1	1
"06"	"main"	77	0	1.0176154000219	0	0	0.718655019614009	0.424261688642449	0	0
"06"	"main"	78	0	0.40998470003251	1	1	0.730571802690875	0.432145925689092	1	0
"06"	"main"	79	1	0.999787299893796	1	0	0.737094261581743	0.430767658249591	0	1
"06"	"main"	80	0	0.458672399981879	0	0	0.5	0.5	0	0
"06"	"main"	81	1	0.36606709996704	0	0	0.513284052484818	0.529381893465876	1	0
"06"	"main"	82	1	0.327054099994712	1	0	0.464237721337896	0.496110214648747	0	1
"06"	"main"	83	1	0.299600000027567	0	0	0.560232697166105	0.457334075535608	1	0
"06"	"main"	84	0	0.241154800052755	1	0	0.511686352492163	0.578046346662422	1	0
"06"	"main"	85	0	0.311749100103043	0	0	0.404712233277053	0.579079000934035	0	0
"06"	"main"	86	0	0.35906749998685	0	0	0.369480929922246	0.586283126921434	0	1
"06"	"main"	87	0	0.694674999918789	1	0	0.322503794003764	0.6022945459428	1	0
"06"	"main"	88	0	0.71669919998385	0	0	0.134268809062603	0.68667236002214	0	0
"06"	"main"	89	1	0.360167599981651	1	1	0.155506573332876	0.754635522854535	0	1
"06"	"main"	90	0	0.42071069998201	0	0	0.283048064664192	0.791457380346444	0	0
"06"	"main"	91	0	0.40397149999626	0	0	0.19317586964517	0.787845018926644	0	1
"06"	"main"	92	1	0.38756189995911	0	0	0.075350179431446	0.823414337226662	0	0
"06"	"main"	93	0	0.580559700028971	0	0	0.135469385940853	0.79989086148191	0	1
"06"	"main"	94	1	0.399949999991804	1	0	0.217975644875593	0.742074077104262	0	1
"06"	"main"	95	1	0.427592599997297	1	0	0.223236868031375	0.639476235501221	1	1
"06"	"main"	96	1	0.508069799980149	1	1	0.190931682376356	0.670119146188176	1	1
"06"	"main"	97	0	0.453492100001313	0	0	0.164795697644265	0.71350148522623	0	0
"06"	"main"	98	1	0.692016399931163	1	0	0.0587941918366612	0.739150293757189	0	1
"06"	"main"	99	1	0.541534800082445	1	0	0.0846386055056624	0.73040362051332	0	1
"06"	"main"	100	1	0.375967899919488	0	0	0.0958368123128416	0.721685277856616	0	0
"06"	"main"	101	0	0.314122700016014	1	0	0.053832202433148	0.786722132494019	1	1
"06"	"main"	102	1	0.320583200082183	1	1	0	0.761102685007765	0	1
"06"	"main"	103	0	0.46367030008696	0	0	0	0.776693933273524	0	1
"06"	"main"	104	1	0.382628799998201	1	0	0	0.819564368191025	0	1
"06"	"main"	105	1	1.40277260006405	1	0	0	0.810267750183304	0	1
"06"	"main"	106	1	0.410777100012638	1	0	0	0.820339913457968	0	1
"06"	"main"	107	1	0.460062999976799	1	0	0.0169675199114359	0.786492443657461	0	1
"06"	"main"	108	1	0.553893700009212	0	0	0.0847207455288439	0.736577461464901	0	0
"06"	"main"	109	0	0.316107799997553	0	0	0.147279284182769	0.763419735393831	0	1
"06"	"main"	110	1	0.641440400038846	0	0	0.276613254699233	0.69523828467482	1	0
"06"	"main"	111	1	0.280729899997823	1	0	0.334862500999842	0.700265090623073	1	1
"06"	"main"	112	1	0.509931799955666	1	1	0.340851040222599	0.802727392986362	1	1
"06"	"main"	113	1	0.724920799955726	1	0	0.331092352609128	0.827928328365019	1	1
"06"	"main"	114	0	0.386574100004509	0	0	0.319566889529114	0.846724315813175	0	1
"06"	"main"	115	0	0.314632299938239	0	0	0.303641050955141	0.831844126631785	0	1
"06"	"main"	116	1	0.286590099916793	1	1	0.284672808527294	0.759483115493039	0	1
"06"	"main"	117	1	0.452159899985418	1	0	0.5	0.5	0	1
"06"	"main"	118	1	0.722643899964169	1	0	0.405077546213323	0.510300271308326	0	1
"06"	"main"	119	1	0.648175899987109	0	0	0.397778822904832	0.48664531969944	0	0
"06"	"main"	120	1	0.382568900007755	0	0	0.440227728735338	0.476095245182856	1	0
"06"	"main"	121	1	0.410561800003052	1	0	0.560466054257797	0.456445984403029	0	1
"06"	"main"	122	1	0.401830099988729	0	0	0.706278861372574	0.432990014976055	0	0
"06"	"main"	123	1	0.535867300000973	1	0	0.775883980754819	0.37127124175343	1	1
"06"	"main"	124	1	0.436610599979758	1	0	0.738178998808561	0.437391583248021	0	1
"06"	"main"	125	1	0.4534721999662	1	1	0.815619220372362	0.441031762172044	0	1
"06"	"main"	126	1	0.361898400005884	1	0	0.769173539714637	0.48319048325766	0	1
"06"	"main"	127	1	0.479506299947388	1	1	0.816871360996698	0.44181720197392	1	1
"06"	"main"	128	1	0.336448099929839	0	0	0.777819424053782	0.444761773899252	1	0
"06"	"main"	129	1	0.361948700039648	1	0	0.796282845738995	0.506536377722022	1	1
"06"	"main"	130	1	0.45040119998157	1	0	0.759640091552668	0.481896203282857	0	1
"06"	"main"	131	1	0.370597300003283	1	0	0.742439930001268	0.515673733948945	1	1
"06"	"main"	132	1	0.499452800024301	0	0	0.799195276284513	0.476301145819806	1	0
"06"	"main"	133	1	0.403379300027154	0	0	0.833458746526229	0.453408391893157	0	0
"06"	"main"	134	1	0.414450300042517	0	0	0.802342961074014	0.412044398220306	1	0
"06"	"main"	135	1	0.41532529995311	0	0	0.730423115232099	0.400014075322617	1	0
"06"	"main"	136	1	0.347870500059798	0	0	0.5	0.5	1	0
"06"	"main"	137	1	0.399320699973032	1	1	0.563226966158004	0.458207236747252	1	1
"06"	"main"	138	1	0.39948980009649	1	0	0.53976186590742	0.472714308421327	1	1
"06"	"main"	139	1	0.38256750011351	0	0	0.588316793163036	0.424622275044204	1	0
"06"	"main"	140	1	0.568765499978326	0	0	0.635770036918279	0.37222685875581	1	0
"06"	"main"	141	1	0.658228499931283	1	0	0.701673117903269	0.288366935868049	1	1
"06"	"main"	142	1	0.481935300049372	0	0	0.786199766788735	0.292400248129942	1	0
"06"	"main"	143	1	0.372328300029039	0	0	0.801558914133946	0.278068053705081	1	0
"06"	"main"	144	1	0.386410500039347	1	0	0.711825591902403	0.333563855604912	0	1
"06"	"main"	145	1	0.421367199975066	0	0	0.836552661143969	0.242906523675509	1	0
"06"	"main"	146	1	1.27045110007748	0	0	0.93136678309911	0.240924262992941	1	0
"06"	"main"	147	1	0.389366399962455	0	0	0.926258165763239	0.297632339923293	1	0
"06"	"main"	148	1	0.336772699956782	1	0	0.91256657949796	0.221515795365011	1	1
"06"	"main"	149	1	0.401227900059894	0	0	0.990241433126796	0.201776923302138	1	0
"06"	"main"	150	1	0.569620199967176	0	0	0.962731795952263	0.17303633054313	1	0
"06"	"main"	151	1	0.36689489998389	0	0	0.92175542619492	0.15473994938277	0	0
"06"	"main"	152	1	0.369680600007996	0	0	1	0.164672178808671	1	0
"06"	"main"	153	1	0.627380999969319	0	0	0.930506169619434	0.26191500591662	1	0
"06"	"main"	154	0	0.507338000112213	1	1	0.905506746872117	0.334798524486805	1	0
"06"	"main"	155	0	0.399474499979988	1	0	0.950615577177758	0.320136614146252	1	0
"06"	"main"	156	0	0.318497699918225	1	1	0.896741143190184	0.339566573481006	1	0
"06"	"main"	157	0	0.461241699988023	1	0	0.853040085573585	0.356676149018156	1	0
"06"	"main"	158	0	0.390462200040929	1	0	0.913921060894133	0.34536544295981	1	0
"06"	"main"	159	0	0.425289700040594	1	0	0.964206878257592	0.372186971547234	1	1
"06"	"main"	160	0	0.324148899991997	0	0	0.910165798806356	0.368600121200789	0	0
"06"	"main"	161	0	0.344466200098395	1	0	0.948042451680344	0.414897360782146	1	0
"06"	"main"	162	0	0.465833999915048	1	1	1	0.365569905181243	1	0
"06"	"main"	163	0	0.369386299978942	1	0	1	0.366436766884944	1	1
"06"	"main"	164	0	0.348423300078139	1	0	1	0.324464777928894	1	1
"06"	"main"	165	0	0.380554899922572	1	0	1	0.320116306620486	1	0
"06"	"main"	166	0	0.334549799910747	1	0	1	0.38969753607428	1	1
"06"	"main"	167	0	1.01111249998212	1	0	0.5	0.5	1	1
"06"	"main"	168	0	0.491686800029129	0	0	0.50351658969195	0.524536755874787	0	0
"06"	"main"	169	0	0.353641199995764	1	1	0.67385711399424	0.517666871825377	1	0
"06"	"main"	170	0	0.288515400025062	0	0	0.628463278214603	0.559855969252727	0	0
"06"	"main"	171	0	0.263711500097997	0	0	0.684814796729482	0.554699720379085	0	0
"06"	"main"	172	1	0.391244700062089	1	0	0.527911762897882	0.648399136382813	0	1
"06"	"main"	173	1	0.344369599944912	0	0	0.665497670476772	0.567180720941672	1	0
"06"	"main"	174	1	0.459139300044626	0	0	0.663773888550375	0.541324753942782	0	0
"06"	"main"	175	1	0.356269499985501	0	0	0.640010967603257	0.510985021725165	1	0
"06"	"main"	176	1	0.425501699908637	1	0	0.509400184169286	0.561823077201915	1	1
"06"	"main"	177	1	0.378312100074254	1	0	0.599474691753887	0.605336780056135	1	1
"06"	"main"	178	1	0.509374600020237	1	1	0.535581308647342	0.57808575644893	1	1
"06"	"main"	179	1	0.389109099982306	0	0	0.640498270868215	0.551108355150418	1	0
"06"	"main"	180	1	0.37550199998077	0	0	0.610573840156063	0.4987428744541	1	0
"06"	"main"	181	1	0.427561800112016	1	0	0.754775722092426	0.426050138987263	1	1
"06"	"main"	182	1	0.809571199933998	1	0	0.808613709814397	0.450898107723797	1	1
"06"	"main"	183	1	0.395535800023936	1	1	0.793473204329693	0.423510411823786	1	1
"06"	"main"	184	1	0.338418500032276	1	0	0.882547017984216	0.417061449893614	1	1
"06"	"main"	185	1	0.387273099971935	0	0	0.844624205423092	0.48621186437157	1	0
"06"	"main"	186	1	0.457519299932756	0	0	0.815359071721132	0.49751038133828	1	0
"06"	"main"	187	1	0.32943649997469	0	0	0.742126453580042	0.530060973197108	1	0
"06"	"main"	188	1	0.450368399964646	0	0	0.781218211589577	0.482477249276747	1	0
"06"	"main"	189	0	0.37039190006908	0	0	0.5	0.5	0	0
"06"	"main"	190	0	0.316970000043511	1	1	0.426256785365754	0.518372018615903	1	1
"06"	"main"	191	0	0.450279499986209	1	0	0.390615288043338	0.558885252951831	1	1
"06"	"main"	192	0	0.487536399974488	1	0	0.417720220579349	0.513015887539214	1	1
"06"	"main"	193	0	0.528388099977747	1	0	0.421362100805762	0.512372966648582	1	0
"06"	"main"	194	0	0.428922099992633	0	0	0.396394887839748	0.489860576931913	0	1
"06"	"main"	195	0	0.360600700019859	1	0	0.531174701960184	0.441806898997427	1	0
"06"	"main"	196	0	0.317421199986711	0	0	0.529470078245538	0.412456963479004	0	0
"06"	"main"	197	0	0.258211700012907	0	0	0.43199073072734	0.440798510346862	0	1
"06"	"main"	198	0	0.332240500021726	0	0	0.532744303534784	0.319535739981654	0	0
"06"	"main"	199	1	0.337009700015187	1	0	0.64360565536582	0.392998621823113	0	1
"06"	"main"	200	1	0.291475200094283	1	0	0.578161391422245	0.442473847633005	1	1
"07"	"practice"	1	NA	NA	0	2	0.604881337828525	0.589525917668432	1	1
"07"	"practice"	2	0	1.22372380000024	0	0	0.645066269995826	0.532447233773351	0	0
"07"	"practice"	3	1	1.19683740000028	1	0	0.654473030423628	0.482017439868693	0	1
"07"	"practice"	4	1	1.12831180000012	0	0	0.629507027346635	0.425239754151142	1	0
